Subject;Session;Block;AudioT1;Procedure[Trial];S1Audio.ACC;S1Audio.OnsetTime;S1Audio.RT;S1response.ACC;S2Visuel.ACC;S2Visuel.OnsetTime;S2Visuel.RT;SOAdur;StimulusVisuel
1;1;6;400.wav;EssaisDT;1;57702;980;1;1;57719;301;15;right
1;1;187;400.wav;EssaisDT;1;1042448;1192;1;1;1042465;356;15;right
1;1;237;400.wav;EssaisDT;1;1349269;992;1;1;1350769;362;1500;left
1;1;31;1800.wav;EssaisDT;1;169287;1041;1;1;169353;365;65;right
1;1;28;400.wav;EssaisDT;1;157520;1092;1;1;159020;393;1500;right
1;1;175;1800.wav;EssaisDT;1;988231;637;1;1;989731;394;1500;right
1;1;156;1800.wav;EssaisDT;1;859996;732;1;1;861496;398;1500;right
1;1;81;400.wav;EssaisDT;1;464774;1028;1;1;466274;402;1500;right
1;1;54;1800.wav;EssaisDT;1;313772;812;1;1;315272;410;1500;left
1;1;49;1800.wav;EssaisDT;1;289505;1004;1;1;291005;413;1500;right
1;1;267;1800.wav;EssaisDT;1;1537171;1128;1;1;1538671;416;1500;right
1;1;37;1800.wav;EssaisDT;1;236271;750;1;1;237771;417;1500;left
1;1;132;1800.wav;EssaisDT;1;746828;1058;1;1;748328;418;1500;right
1;1;117;1800.wav;EssaisDT;1;655593;1099;1;1;657093;421;1500;right
1;1;259;400.wav;EssaisDT;1;1502137;1242;1;1;1502204;422;65;right
1;1;125;400.wav;EssaisDT;1;684710;748;1;1;686210;423;1500;right
1;1;100;1800.wav;EssaisDT;1;583409;920;1;1;583475;435;65;left
1;1;120;1800.wav;EssaisDT;1;668110;1214;1;1;669610;435;1500;left
1;1;238;1800.wav;EssaisDT;1;1354669;996;1;1;1356169;440;1500;right
1;1;52;400.wav;EssaisDT;1;304405;874;1;1;305905;443;1500;left
1;1;189;400.wav;EssaisDT;1;1051882;992;1;1;1053382;443;1500;right
1;1;84;400.wav;EssaisDT;1;476974;885;1;1;477041;446;65;left
1;1;197;1800.wav;EssaisDT;1;1109632;756;1;1;1111132;449;1500;left
1;1;239;400.wav;EssaisDT;1;1360152;852;1;1;1361652;450;1500;right
1;1;209;1800.wav;EssaisDT;1;1159366;1059;1;1;1159383;451;15;right
1;1;218;1800.wav;EssaisDT;1;1208117;763;1;1;1209617;454;1500;left
1;1;140;400.wav;EssaisDT;1;781161;910;1;1;782661;462;1500;left
1;1;255;1800.wav;EssaisDT;1;1440137;607;1;1;1441637;465;1500;right
1;1;87;1800.wav;EssaisDT;1;488274;741;1;1;489774;466;1500;right
1;1;56;400.wav;EssaisDT;1;325255;1193;1;1;326755;469;1500;right
1;1;160;1800.wav;EssaisDT;1;882663;1252;1;1;884163;470;1500;left
1;1;176;1800.wav;EssaisDT;1;993647;739;1;1;995147;472;1500;left
1;1;94;1800.wav;EssaisDT;1;517875;929;1;1;517891;473;15;right
1;1;206;1800.wav;EssaisDT;1;1144466;936;1;1;1145966;473;1500;right
1;1;199;1800.wav;EssaisDT;1;1117182;1228;1;1;1117249;474;65;right
1;1;25;400.wav;EssaisDT;1;148586;949;1;1;148603;477;15;right
1;1;261;400.wav;EssaisDT;1;1511671;680;1;1;1511921;477;250;left
1;1;250;1800.wav;EssaisDT;1;1413120;1156;1;1;1414620;480;1500;left
1;1;112;400.wav;EssaisDT;1;636476;774;1;1;637976;495;1500;right
1;1;139;1800.wav;EssaisDT;1;776361;622;1;1;777861;498;1500;left
1;1;208;400.wav;EssaisDT;1;1153883;952;1;1;1155383;499;1500;right
1;1;193;400.wav;EssaisDT;1;1093282;1510;0;1;1093532;500;250;right
1;1;95;400.wav;EssaisDT;1;521425;822;1;1;521441;502;15;left
1;1;186;400.wav;EssaisDT;1;1036915;1061;1;1;1038415;504;1500;left
1;1;129;1800.wav;EssaisDT;1;736594;656;1;1;736611;508;15;left
1;1;148;1800.wav;EssaisDT;1;819745;685;1;1;819812;508;65;right
1;1;18;1800.wav;EssaisDT;1;117269;1009;1;1;118769;514;1500;left
1;1;41;1800.wav;EssaisDT;1;255088;687;0;1;255154;515;65;left
1;1;278;400.wav;EssaisDT;1;1588072;924;1;1;1589572;520;1500;left
1;1;43;1800.wav;EssaisDT;1;264188;652;1;1;264438;523;250;right
1;1;168;400.wav;EssaisDT;1;959614;740;1;1;961114;526;1500;left
1;1;40;400.wav;EssaisDT;1;251154;821;1;1;251404;528;250;left
1;1;210;400.wav;EssaisDT;1;1163333;797;1;1;1164833;529;1500;left
1;1;178;400.wav;EssaisDT;1;1004881;825;1;1;1004898;533;15;left
1;1;39;400.wav;EssaisDT;1;247654;755;1;1;247721;534;65;left
1;1;276;1800.wav;EssaisDT;1;1580138;980;1;1;1581638;540;1500;left
1;1;242;400.wav;EssaisDT;1;1372352;1028;1;1;1373852;542;1500;left
1;1;53;400.wav;EssaisDT;1;309905;1167;1;1;309922;547;15;right
1;1;75;400.wav;EssaisDT;1;436490;954;1;1;437990;549;1500;left
1;1;88;1800.wav;EssaisDT;1;493824;904;1;1;493841;550;15;left
1;1;154;400.wav;EssaisDT;1;849596;1305;0;1;849612;555;15;right
1;1;243;400.wav;EssaisDT;1;1377852;729;1;1;1379352;556;1500;right
1;1;265;400.wav;EssaisDT;1;1527154;760;1;1;1527221;559;65;left
1;1;285;400.wav;EssaisDT;1;1625906;814;1;1;1627406;566;1500;right
1;1;98;400.wav;EssaisDT;1;574725;1273;1;1;576225;569;1500;left
1;1;135;1800.wav;EssaisDT;1;764878;629;1;1;764894;574;15;right
1;1;80;1800.wav;EssaisDT;1;459090;783;1;1;459340;575;250;right
1;1;260;400.wav;EssaisDT;1;1506137;648;1;1;1506204;579;65;left
1;1;110;1800.wav;EssaisDT;1;629343;734;1;1;629409;589;65;right
1;1;118;400.wav;EssaisDT;1;661093;859;1;1;661160;591;65;left
1;1;14;400.wav;EssaisDT;1;97952;1089;1;1;99452;594;1500;left
1;1;119;1800.wav;EssaisDT;1;664710;771;1;1;664726;594;15;right
1;1;17;400.wav;EssaisDT;1;113503;753;1;1;113519;597;15;left
1;1;190;1800.wav;EssaisDT;1;1057298;1030;1;1;1057315;601;15;left
1;1;126;400.wav;EssaisDT;1;690110;680;1;1;690127;605;15;left
1;1;142;1800.wav;EssaisDT;1;790278;583;1;1;790528;608;250;right
1;1;34;400.wav;EssaisDT;1;222371;637;1;1;222387;614;15;left
1;1;130;1800.wav;EssaisDT;1;740544;811;1;1;740611;614;65;right
1;1;174;1800.wav;EssaisDT;1;984581;727;1;1;984647;617;65;right
1;1;170;400.wav;EssaisDT;1;969030;677;1;1;969280;621;250;left
1;1;92;400.wav;EssaisDT;1;512158;870;1;1;512224;628;65;right
1;1;128;1800.wav;EssaisDT;1;699160;627;1;1;699412;630;250;left
1;1;91;400.wav;EssaisDT;1;506558;681;1;1;506808;631;250;right
1;1;182;400.wav;EssaisDT;1;1021281;686;1;1;1021348;637;65;right
1;1;21;1800.wav;EssaisDT;1;129936;1880;1;1;131436;642;1500;right
1;1;78;1800.wav;EssaisDT;1;447424;972;1;1;448924;642;1500;left
1;1;108;400.wav;EssaisDT;1;623176;915;1;1;623193;642;15;left
1;1;42;1800.wav;EssaisDT;1;258571;1963;0;1;260071;645;1500;right
1;1;145;1800.wav;EssaisDT;1;804945;543;1;1;805195;647;250;left
1;1;89;1800.wav;EssaisDT;1;497624;628;1;1;497691;650;65;right
1;1;214;1800.wav;EssaisDT;1;1185483;824;1;1;1185733;652;250;right
1;1;96;400.wav;EssaisDT;1;524975;909;1;1;525225;661;250;left
1;1;124;400.wav;EssaisDT;1;680943;1088;1;1;681193;661;250;right
1;1;244;1800.wav;EssaisDT;1;1383403;668;1;1;1383419;661;15;right
1;1;284;400.wav;EssaisDT;1;1620272;766;1;1;1620522;664;250;right
1;1;235;400.wav;EssaisDT;1;1339219;847;1;1;1339285;666;65;left
1;1;215;400.wav;EssaisDT;1;1191200;836;1;1;1191267;680;65;left
1;1;127;400.wav;EssaisDT;1;693410;716;1;1;693427;684;15;right
1;1;251;1800.wav;EssaisDT;1;1418603;745;1;1;1418853;708;250;left
1;1;141;400.wav;EssaisDT;1;786628;35;1;1;786695;709;65;right
1;1;111;400.wav;EssaisDT;1;632676;838;1;1;632693;712;15;right
1;1;102;1800.wav;EssaisDT;1;589992;721;1;1;590009;718;15;left
1;1;107;400.wav;EssaisDT;1;617476;803;1;1;617542;718;65;right
1;1;246;1800.wav;EssaisDT;1;1392403;766;1;1;1392469;718;65;right
1;1;188;1800.wav;EssaisDT;1;1046215;652;1;1;1046465;720;250;right
1;1;62;400.wav;EssaisDT;1;349822;816;1;1;349889;722;65;right
1;1;263;1800.wav;EssaisDT;1;1519288;694;1;1;1519538;722;250;right
1;1;134;400.wav;EssaisDT;1;759178;902;1;1;759428;733;250;left
1;1;212;400.wav;EssaisDT;1;1174916;861;1;1;1174933;737;15;left
1;1;169;1800.wav;EssaisDT;1;965280;1117;1;1;965297;744;15;right
1;1;57;400.wav;EssaisDT;1;330822;889;1;1;330889;746;65;left
1;1;2;400.wav;EssaisDT;1;35585;1161;0;1;37085;751;1500;right
1;1;221;1800.wav;EssaisDT;1;1225584;934;1;1;1225600;760;15;right
1;1;51;1800.wav;EssaisDT;1;298688;920;1;1;298938;772;250;left
1;1;7;1800.wav;EssaisDT;1;61602;859;1;1;61852;786;250;left
1;1;233;400.wav;EssaisDT;1;1331335;857;1;1;1331352;786;15;right
1;1;59;1800.wav;EssaisDT;1;336855;770;1;1;336872;788;15;right
1;1;220;1800.wav;EssaisDT;1;1219784;794;1;1;1220034;798;250;left
1;1;269;400.wav;EssaisDT;1;1544821;853;1;1;1544838;801;15;right
1;1;50;1800.wav;EssaisDT;1;295072;891;1;1;295088;825;15;left
1;1;288;1800.wav;EssaisDT;1;1636773;582;1;1;1636839;826;65;left
1;1;177;1800.wav;EssaisDT;1;999097;854;1;1;999164;830;65;left
1;1;146;400.wav;EssaisDT;1;810562;852;1;1;810578;836;15;left
1;1;10;1800.wav;EssaisDT;1;77552;654;1;1;77569;837;15;right
1;1;103;400.wav;EssaisDT;1;595709;923;1;1;595959;838;250;left
1;1;202;400.wav;EssaisDT;1;1129416;877;1;1;1129666;838;250;left
1;1;63;1800.wav;EssaisDT;1;355472;779;1;1;355539;840;65;right
1;1;229;400.wav;EssaisDT;1;1313352;913;1;1;1313602;842;250;right
1;1;36;400.wav;EssaisDT;1;230387;885;1;1;230637;855;250;right
1;1;224;400.wav;EssaisDT;1;1234001;947;1;1;1234251;857;250;left
1;1;12;1800.wav;EssaisDT;1;89319;843;1;1;89569;860;250;right
1;1;216;1800.wav;EssaisDT;1;1195467;824;1;1;1195483;860;15;left
1;1;33;400.wav;EssaisDT;1;216521;1918;1;1;218021;863;1500;left
1;1;11;400.wav;EssaisDT;1;83469;900;1;1;83719;880;250;left
1;1;151;400.wav;EssaisDT;1;831195;1302;1;1;832695;883;1500;right
1;1;162;1800.wav;EssaisDT;1;938447;715;1;1;938463;883;15;left
1;1;272;1800.wav;EssaisDT;1;1559005;792;1;1;1559255;885;250;right
1;1;273;1800.wav;EssaisDT;1;1565772;699;1;1;1565838;893;65;right
1;1;47;1800.wav;EssaisDT;1;281338;871;1;1;281355;903;15;left
1;1;61;400.wav;EssaisDT;1;345972;1227;1;1;346222;903;250;left
1;1;270;400.wav;EssaisDT;1;1549505;910;1;1;1549521;903;15;left
1;1;5;1800.wav;EssaisDT;1;51785;633;1;1;51802;910;15;left
1;1;253;400.wav;EssaisDT;1;1427986;721;1;1;1428003;928;15;left
1;1;114;1800.wav;EssaisDT;1;644076;831;1;1;644326;934;250;right
1;1;280;400.wav;EssaisDT;1;1597622;927;1;1;1597872;940;250;left
1;1;165;400.wav;EssaisDT;1;948431;956;1;1;948680;945;250;right
1;1;38;1800.wav;EssaisDT;1;241671;864;1;1;241688;951;15;right
1;1;8;1800.wav;EssaisDT;1;67419;700;1;1;67485;970;65;right
1;1;70;400.wav;EssaisDT;1;409223;1022;1;1;409473;975;250;right
1;1;248;1800.wav;EssaisDT;1;1400903;1007;1;1;1400919;984;15;left
1;1;159;1800.wav;EssaisDT;1;876696;967;1;1;876946;985;250;right
1;1;106;400.wav;EssaisDT;1;611459;1127;1;1;611709;987;250;right
1;1;22;400.wav;EssaisDT;1;135536;1084;1;1;135603;995;65;right
1;1;74;1800.wav;EssaisDT;1;430523;819;1;1;430590;1007;65;left
1;1;79;400.wav;EssaisDT;1;453024;992;1;1;453040;1017;15;right
1;1;211;1800.wav;EssaisDT;1;1168883;969;1;1;1168950;1026;65;left
1;1;282;1800.wav;EssaisDT;1;1609855;600;1;1;1609872;1031;15;right
1;1;149;400.wav;EssaisDT;1;823062;672;1;1;823129;1039;65;right
1;1;71;400.wav;EssaisDT;1;415207;917;1;1;415223;1048;15;left
1;1;236;400.wav;EssaisDT;1;1343235;897;1;1;1343302;1052;65;right
1;1;73;1800.wav;EssaisDT;1;424323;1327;0;1;424573;1057;250;left
1;1;55;1800.wav;EssaisDT;1;319206;1162;1;1;319455;1067;250;right
1;1;153;400.wav;EssaisDT;1;843562;925;1;1;843629;1082;65;left
1;1;219;1800.wav;EssaisDT;1;1213650;896;1;1;1213717;1087;65;left
1;1;275;1800.wav;EssaisDT;1;1574105;866;1;1;1574355;1087;250;left
1;1;226;1800.wav;EssaisDT;1;1298701;988;1;1;1298951;1089;250;right
1;1;213;1800.wav;EssaisDT;1;1179400;945;1;1;1179650;1096;250;left
1;1;46;1800.wav;EssaisDT;1;275255;1200;1;1;275505;1102;250;left
1;1;143;1800.wav;EssaisDT;1;795845;1181;1;1;795912;1117;65;left
1;1;200;400.wav;EssaisDT;1;1121182;807;1;1;1121199;1135;15;right
1;1;15;1800.wav;EssaisDT;1;103769;1290;1;1;103836;1159;65;left
1;1;191;400.wav;EssaisDT;1;1061015;630;0;1;1061082;1180;65;left
1;1;230;1800.wav;EssaisDT;1;1319168;1113;1;1;1319235;1215;65;right
1;1;258;400.wav;EssaisDT;1;1495971;1207;1;1;1496221;1223;250;right
1;1;249;400.wav;EssaisDT;1;1406853;984;1;1;1406869;1290;15;right
1;1;254;1800.wav;EssaisDT;1;1433887;1027;1;1;1433953;1304;65;left
1;1;155;1800.wav;EssaisDT;1;853696;781;1;1;853712;1313;15;right
1;1;266;1800.wav;EssaisDT;1;1530888;1104;1;1;1530904;1315;15;left
1;1;281;400.wav;EssaisDT;1;1603539;1239;1;1;1603605;1330;65;right
1;1;69;1800.wav;EssaisDT;1;402906;858;1;1;402973;1344;65;left
1;1;32;400.wav;EssaisDT;1;173003;1365;1;1;173070;1379;65;right
1;1;158;1800.wav;EssaisDT;1;870312;1051;1;1;870379;1418;65;left
1;1;227;1800.wav;EssaisDT;1;1304735;1284;1;1;1304752;1445;15;left
1;1;152;400.wav;EssaisDT;1;837029;1532;1;1;837279;1490;250;left
1;1;104;1800.wav;EssaisDT;1;601526;1452;1;1;601776;1493;250;left
1;1;194;400.wav;EssaisDT;1;1097765;1409;1;1;1097832;1499;65;right
1;1;4;400.wav;EssaisDT;1;45285;1361;1;1;45535;1507;250;right
1;1;171;400.wav;EssaisDT;1;974614;2079;1;1;974864;1740;250;right
1;1;217;400.wav;EssaisDT;1;1201333;1650;1;1;1201350;1815;15;left
1;1;133;400.wav;EssaisDT;1;752261;1303;1;1;752328;1976;65;left
1;1;16;400.wav;EssaisDT;1;108286;2293;1;1;108353;2164;65;left
1;1;180;1800.wav;EssaisDT;1;1010614;1251;1;1;1010864;2351;250;left
2;1;248;1800.wav;EssaisDT;1;1266500;871;1;1;1268000;278;1500;right
2;1;210;400.wav;EssaisDT;1;1083914;738;1;1;1083931;300;15;left
2;1;82;1800.wav;EssaisDT;1;403289;656;1;1;404789;307;1500;left
2;1;22;400.wav;EssaisDT;1;115035;731;1;1;116535;311;1500;left
2;1;177;1800.wav;EssaisDT;1;928862;622;1;1;930362;312;1500;left
2;1;71;1800.wav;EssaisDT;1;359988;633;1;1;361488;316;1500;left
2;1;274;1800.wav;EssaisDT;1;1391352;1000;1;1;1392852;317;1500;right
2;1;106;1800.wav;EssaisDT;1;586741;778;0;1;586758;319;15;left
2;1;62;400.wav;EssaisDT;1;304454;710;1;1;305954;322;1500;right
2;1;133;1800.wav;EssaisDT;1;720626;830;1;1;722126;331;1500;right
2;1;37;400.wav;EssaisDT;1;200753;684;1;1;200819;337;65;left
2;1;41;1800.wav;EssaisDT;1;219986;513;1;1;221486;337;1500;right
2;1;18;400.wav;EssaisDT;1;100918;1194;1;1;100985;338;65;right
2;1;27;1800.wav;EssaisDT;1;138035;634;1;1;139535;339;1500;left
2;1;47;;EssaisDT;1;243087;776;1;1;244587;341;1500;right
2;1;184;400.wav;EssaisDT;1;953246;763;1;1;954746;341;1500;right
2;1;250;400.wav;EssaisDT;1;1275133;754;0;1;1275150;342;15;left
2;1;219;400.wav;EssaisDT;1;1119381;675;1;1;1120881;346;1500;left
2;1;19;1800.wav;EssaisDT;1;104801;627;1;1;106301;352;1500;right
2;1;238;;EssaisDT;1;1227199;759;1;1;1228700;353;1500;right
2;1;142;400.wav;EssaisDT;1;755643;842;1;1;757143;355;1500;right
2;1;88;1800.wav;EssaisDT;1;429856;866;1;1;431356;357;1500;right
2;1;119;1800.wav;EssaisDT;1;635808;705;1;1;637308;359;1500;left
2;1;175;400.wav;EssaisDT;1;919512;727;1;1;921012;368;1500;left
2;1;191;;EssaisDT;1;980930;755;1;1;982430;376;1500;right
2;1;247;400.wav;EssaisDT;1;1261200;621;1;1;1262700;376;1500;left
2;1;94;;EssaisDT;1;451689;943;1;1;451706;382;15;left
2;1;163;;EssaisDT;1;872161;591;1;1;873662;385;1500;right
2;1;158;1800.wav;EssaisDT;1;811327;742;1;1;812827;386;1500;left
2;1;288;400.wav;EssaisDT;1;1444652;728;1;1;1446152;386;1500;right
2;1;91;400.wav;EssaisDT;1;440656;863;1;1;442156;390;1500;left
2;1;50;;EssaisDT;1;256170;859;1;1;256187;392;15;right
2;1;81;400.wav;EssaisDT;1;397955;648;1;1;398205;392;250;left
2;1;218;1800.wav;EssaisDT;1;1114048;747;1;1;1115548;394;1500;left
2;1;149;1800.wav;EssaisDT;1;780027;799;1;1;781527;395;1500;left
2;1;153;400.wav;EssaisDT;1;796310;700;1;1;796327;406;15;right
2;1;215;1800.wav;EssaisDT;1;1099914;816;1;1;1101414;410;1500;right
2;1;36;400.wav;EssaisDT;1;196169;1012;1;1;196186;416;15;right
2;1;14;1800.wav;EssaisDT;1;83401;699;1;1;84901;418;1500;right
2;1;201;;EssaisDT;1;1053914;570;1;1;1053931;420;15;right
2;1;43;400.wav;EssaisDT;1;228236;1070;1;1;228303;423;65;right
2;1;55;400.wav;EssaisDT;1;272020;608;1;1;273520;424;1500;left
2;1;167;400.wav;EssaisDT;1;886262;597;1;1;886512;425;250;right
2;1;267;400.wav;EssaisDT;1;1361351;626;1;1;1361601;427;250;right
2;1;69;400.wav;EssaisDT;1;353471;772;1;1;353721;428;250;left
2;1;269;400.wav;EssaisDT;1;1372435;736;1;1;1372685;430;250;right
2;1;262;400.wav;EssaisDT;1;1337751;635;1;1;1339251;432;1500;left
2;1;31;1800.wav;EssaisDT;1;158769;1088;1;1;159019;434;250;right
2;1;199;1800.wav;EssaisDT;1;1047414;724;1;1;1047664;435;250;right
2;1;204;1800.wav;EssaisDT;1;1062614;635;1;1;1064114;436;1500;right
2;1;118;1800.wav;EssaisDT;1;630358;668;1;1;631858;440;1500;right
2;1;30;400.wav;EssaisDT;1;154985;873;1;1;155002;441;15;right
2;1;68;400.wav;EssaisDT;1;349838;1035;1;1;349905;442;65;right
2;1;168;400.wav;EssaisDT;1;891612;694;1;1;893112;444;1500;right
2;1;159;400.wav;EssaisDT;1;816644;528;1;1;816894;446;250;left
2;1;227;1800.wav;EssaisDT;1;1180666;573;1;1;1182166;449;1500;right
2;1;131;400.wav;EssaisDT;1;712143;679;1;1;712393;451;250;right
2;1;240;400.wav;EssaisDT;1;1236183;779;1;1;1236433;452;250;left
2;1;83;1800.wav;EssaisDT;1;408622;649;1;1;410122;454;1500;right
2;1;120;400.wav;EssaisDT;1;641125;591;1;1;642625;455;1500;left
2;1;104;1800.wav;EssaisDT;1;577308;1137;1;1;577374;458;65;left
2;1;113;1800.wav;EssaisDT;1;614658;674;1;1;614725;458;65;left
2;1;275;1800.wav;EssaisDT;1;1396652;766;1;1;1396902;458;250;left
2;1;1;1800.wav;EssaisDT;1;30800;1729;1;1;31300;463;250;right
2;1;135;1800.wav;EssaisDT;1;728810;623;1;1;730310;464;1500;left
2;1;77;1800.wav;EssaisDT;1;383188;687;0;1;383255;465;65;left
2;1;46;400.wav;EssaisDT;1;239687;705;1;1;239753;467;65;left
2;1;125;;EssaisDT;1;660025;791;1;1;660275;470;250;left
2;1;224;1800.wav;EssaisDT;1;1136382;558;1;1;1136632;472;250;left
2;1;169;1800.wav;EssaisDT;1;897128;685;1;1;897145;473;15;right
2;1;108;;EssaisDT;1;596741;1256;1;1;596808;476;65;right
2;1;101;400.wav;EssaisDT;1;567941;780;1;1;568191;480;250;right
2;1;139;1800.wav;EssaisDT;1;743710;580;1;1;743726;480;15;left
2;1;246;1800.wav;EssaisDT;1;1255750;744;1;1;1256000;482;250;left
2;1;162;400.wav;EssaisDT;1;866745;664;1;1;866995;483;250;right
2;1;283;1800.wav;EssaisDT;1;1422869;655;1;1;1422935;484;65;left
2;1;171;1800.wav;EssaisDT;1;903862;673;1;1;903929;485;65;right
2;1;173;400.wav;EssaisDT;1;910362;820;1;1;910612;485;250;left
2;1;189;1800.wav;EssaisDT;1;973346;563;1;1;973413;485;65;left
2;1;200;1800.wav;EssaisDT;1;1050714;579;1;1;1050731;485;15;left
2;1;243;1800.wav;EssaisDT;1;1246883;639;1;1;1246900;488;15;right
2;1;230;400.wav;EssaisDT;1;1195082;940;1;1;1195099;490;15;right
2;1;4;400.wav;EssaisDT;1;43101;663;1;1;43167;491;65;left
2;1;214;400.wav;EssaisDT;1;1096664;694;1;1;1096731;494;65;left
2;1;255;400.wav;EssaisDT;1;1292784;656;1;1;1292800;494;15;left
2;1;3;400.wav;EssaisDT;1;39334;807;1;1;39584;496;250;left
2;1;84;1800.wav;EssaisDT;1;414072;682;1;1;414322;496;250;right
2;1;253;400.wav;EssaisDT;1;1285217;1112;1;1;1285284;496;65;right
2;1;2;1800.wav;EssaisDT;1;35434;932;1;1;35451;498;15;right
2;1;128;400.wav;EssaisDT;1;668942;847;1;1;669192;500;250;right
2;1;265;400.wav;EssaisDT;1;1354668;815;1;1;1354918;501;250;left
2;1;152;1800.wav;EssaisDT;1;790860;571;1;1;790927;504;65;right
2;1;144;400.wav;EssaisDT;1;764143;970;1;1;764210;505;65;left
2;1;111;1800.wav;EssaisDT;1;605008;1156;1;1;606508;507;1500;right
2;1;9;400.wav;EssaisDT;1;65751;609;1;1;65768;509;15;left
2;1;146;400.wav;EssaisDT;1;771127;733;1;1;771143;510;15;right
2;1;280;1800.wav;EssaisDT;1;1414185;987;1;1;1414252;511;65;right
2;1;194;400.wav;EssaisDT;1;1022647;640;1;1;1024147;515;1500;left
2;1;202;400.wav;EssaisDT;1;1057031;650;1;1;1057097;515;65;right
2;1;72;1800.wav;EssaisDT;1;365238;653;1;1;365255;517;15;left
2;1;100;1800.wav;EssaisDT;1;564757;595;1;1;564774;519;15;left
2;1;137;1800.wav;EssaisDT;1;737093;742;1;1;737160;520;65;left
2;1;179;400.wav;EssaisDT;1;937112;802;1;1;937362;520;250;right
2;1;124;;EssaisDT;1;656459;797;1;1;656475;521;15;right
2;1;87;400.wav;EssaisDT;1;426089;802;1;1;426339;522;250;left
2;1;75;;EssaisDT;1;374722;606;1;1;374972;523;250;right
2;1;170;400.wav;EssaisDT;1;900379;862;1;1;900629;527;250;left
2;1;263;400.wav;EssaisDT;1;1343334;677;1;1;1343584;528;250;left
2;1;40;1800.wav;EssaisDT;1;214520;722;1;1;214770;530;250;left
2;1;233;400.wav;EssaisDT;1;1209716;899;1;1;1209733;532;15;right
2;1;272;;EssaisDT;1;1383568;695;1;1;1385068;536;1500;left
2;1;63;400.wav;EssaisDT;1;309871;727;1;1;310121;538;250;right
2;1;145;1800.wav;EssaisDT;1;767727;820;1;1;767977;544;250;left
2;1;197;1800.wav;EssaisDT;1;1038530;661;1;1;1038780;544;250;left
2;1;56;1800.wav;EssaisDT;1;277404;609;1;1;277470;546;65;left
2;1;141;1800.wav;EssaisDT;1;752410;635;1;1;752427;548;15;right
2;1;172;;EssaisDT;1;907162;654;1;1;907179;549;15;right
2;1;231;;EssaisDT;1;1198699;790;1;1;1198949;549;250;right
2;1;176;400.wav;EssaisDT;1;924979;683;1;1;925046;552;65;right
2;1;57;1800.wav;EssaisDT;1;283070;705;1;1;283320;554;250;left
2;1;232;400.wav;EssaisDT;1;1204216;765;1;1;1204466;555;250;right
2;1;147;1800.wav;EssaisDT;1;774477;735;1;1;774544;556;65;right
2;1;212;1800.wav;EssaisDT;1;1090314;750;1;1;1090381;557;65;left
2;1;244;;EssaisDT;1;1250183;688;1;1;1250250;558;65;left
2;1;105;400.wav;EssaisDT;1;581224;665;1;1;581474;565;250;right
2;1;196;;EssaisDT;1;1034330;879;1;1;1034580;568;250;right
2;1;223;1800.wav;EssaisDT;1;1132648;765;1;1;1132715;569;65;right
2;1;284;400.wav;EssaisDT;1;1426169;636;1;1;1426185;573;15;right
2;1;198;1800.wav;EssaisDT;1;1044047;742;1;1;1044114;577;65;right
2;1;73;;EssaisDT;1;368555;668;1;1;368572;578;15;left
2;1;54;400.wav;EssaisDT;1;268620;877;1;1;268637;579;15;right
2;1;13;;EssaisDT;1;79834;682;1;1;79851;580;15;right
2;1;112;400.wav;EssaisDT;1;610441;1157;1;1;610458;582;15;right
2;1;138;;EssaisDT;1;740360;764;1;1;740426;582;65;right
2;1;102;;EssaisDT;1;571308;747;1;1;571324;587;15;right
2;1;260;1800.wav;EssaisDT;1;1328284;1152;1;1;1329784;589;1500;right
2;1;239;1800.wav;EssaisDT;1;1232633;997;1;1;1232700;597;65;left
2;1;7;400.wav;EssaisDT;1;54117;621;1;1;54367;598;250;right
2;1;193;1800.wav;EssaisDT;1;1016580;1345;1;1;1018080;598;1500;left
2;1;183;1800.wav;EssaisDT;1;949812;701;1;1;949829;601;15;left
2;1;187;1800.wav;EssaisDT;1;963796;657;1;1;964046;603;250;right
2;1;45;400.wav;EssaisDT;1;234153;810;1;1;235653;604;1500;left
2;1;140;1800.wav;EssaisDT;1;746843;577;1;1;746860;604;15;left
2;1;49;400.wav;EssaisDT;1;250603;967;1;1;252103;605;1500;right
2;1;286;;EssaisDT;1;1433269;836;1;1;1434769;608;1500;left
2;1;222;400.wav;EssaisDT;1;1128965;722;1;1;1129031;609;65;left
2;1;271;;EssaisDT;1;1377785;658;1;1;1377801;613;15;left
2;1;51;;EssaisDT;1;259887;918;1;1;259953;629;65;right
2;1;150;1800.wav;EssaisDT;1;785410;762;1;1;785477;629;65;left
2;1;5;1800.wav;EssaisDT;1;46434;636;1;1;46451;642;15;left
2;1;86;400.wav;EssaisDT;1;422722;777;1;1;422789;646;65;left
2;1;117;400.wav;EssaisDT;1;626608;1039;1;1;626675;647;65;right
2;1;165;400.wav;EssaisDT;1;879478;777;1;1;879495;665;15;left
2;1;92;1800.wav;EssaisDT;1;446056;864;1;1;446123;671;65;right
2;1;28;;EssaisDT;1;143335;614;1;1;143402;672;65;right
2;1;207;400.wav;EssaisDT;1;1072214;820;1;1;1072464;681;250;left
2;1;96;400.wav;EssaisDT;1;457356;790;1;1;457373;683;15;right
2;1;127;400.wav;EssaisDT;1;665459;882;1;1;665525;688;65;right
2;1;188;1800.wav;EssaisDT;1;969413;743;1;1;969429;688;15;left
2;1;268;400.wav;EssaisDT;1;1366751;779;1;1;1366818;705;65;left
2;1;129;400.wav;EssaisDT;1;704209;292;1;1;705709;707;1500;left
2;1;160;;EssaisDT;1;822044;764;1;1;822061;717;15;left
2;1;123;1800.wav;EssaisDT;1;650825;749;1;1;651075;724;250;left
2;1;261;1800.wav;EssaisDT;1;1333868;818;1;1;1333934;725;65;right
2;1;254;1800.wav;EssaisDT;1;1289484;795;1;1;1289500;734;15;right
2;1;99;;EssaisDT;1;561207;1054;1;1;561457;749;250;left
2;1;79;400.wav;EssaisDT;1;390072;771;1;1;390088;753;15;right
2;1;264;1800.wav;EssaisDT;1;1348918;872;1;1;1349168;770;250;right
2;1;61;400.wav;EssaisDT;1;298687;629;1;1;298704;783;15;left
2;1;174;400.wav;EssaisDT;1;913762;881;1;1;913829;788;65;left
2;1;29;1800.wav;EssaisDT;1;148952;812;1;1;148969;795;15;left
2;1;276;400.wav;EssaisDT;1;1400218;765;1;1;1400235;811;15;left
2;1;15;;EssaisDT;1;88751;698;1;1;88818;812;65;left
2;1;287;1800.wav;EssaisDT;1;1438802;809;1;1;1438819;817;15;right
2;1;195;1800.wav;EssaisDT;1;1028347;835;1;1;1028364;822;15;right
2;1;12;1800.wav;EssaisDT;1;74034;647;1;1;75534;828;1500;left
2;1;26;400.wav;EssaisDT;1;132235;883;1;1;132485;842;250;left
2;1;154;400.wav;EssaisDT;1;799594;973;1;1;799661;844;65;left
2;1;58;1800.wav;EssaisDT;1;288654;1144;1;1;288904;848;250;right
2;1;59;;EssaisDT;1;292554;1020;1;1;292621;853;65;left
2;1;39;1800.wav;EssaisDT;1;208636;894;1;1;208886;862;250;right
2;1;107;400.wav;EssaisDT;1;590874;1143;1;1;591124;880;250;left
2;1;38;;EssaisDT;1;204253;1454;1;1;204269;886;15;left
2;1;242;;EssaisDT;1;1242950;1179;1;1;1243200;892;250;right
2;1;234;1800.wav;EssaisDT;1;1213233;955;1;1;1213249;919;15;left
2;1;256;1800.wav;EssaisDT;1;1296084;1033;1;1;1296150;922;65;left
2;1;8;1800.wav;EssaisDT;1;59651;1171;1;1;59901;940;250;left
2;1;78;1800.wav;EssaisDT;1;386405;1090;1;1;386472;963;65;right
2;1;217;;EssaisDT;1;1108098;832;1;1;1108165;1022;65;right
2;1;229;400.wav;EssaisDT;1;1189099;904;1;1;1189116;1032;15;left
2;1;23;1800.wav;EssaisDT;1;120268;668;1;1;120335;1052;65;right
2;1;285;1800.wav;EssaisDT;1;1429352;1338;1;1;1429419;1226;65;right
3;1;84;1800.wav;EssaisDT;1;521474;699;1;1;521724;371;250;left
3;1;248;1800.wav;EssaisDT;1;1389218;717;1;1;1389285;406;65;right
3;1;15;;EssaisDT;1;77285;798;1;1;77351;407;65;left
3;1;120;;EssaisDT;1;687309;1129;1;1;687326;411;15;right
3;1;80;400.wav;EssaisDT;1;506374;808;1;1;506624;415;250;left
3;1;88;400.wav;EssaisDT;1;537824;887;1;1;538074;427;250;right
3;1;238;400.wav;EssaisDT;1;1348918;971;1;1;1348985;432;65;left
3;1;78;1800.wav;EssaisDT;1;499107;1382;1;1;499123;435;15;right
3;1;58;1800.wav;EssaisDT;1;281804;774;1;1;281871;436;65;right
3;1;216;400.wav;EssaisDT;1;1140882;621;1;1;1140949;439;65;right
3;1;92;1800.wav;EssaisDT;1;553124;1963;1;1;553191;441;65;left
3;1;45;1800.wav;EssaisDT;1;229937;845;1;1;229953;443;15;right
3;1;119;400.wav;EssaisDT;1;683643;907;1;1;683893;443;250;left
3;1;178;400.wav;EssaisDT;1;960763;594;1;1;960780;443;15;right
3;1;61;400.wav;EssaisDT;1;290087;951;1;1;290154;444;65;left
3;1;52;1800.wav;EssaisDT;1;257754;762;1;1;258004;448;250;right
3;1;164;;EssaisDT;1;905662;692;1;1;907162;449;1500;right
3;1;182;1800.wav;EssaisDT;1;979196;679;1;1;979263;452;65;left
3;1;95;;EssaisDT;1;562008;1155;1;1;562024;455;15;left
3;1;153;1800.wav;EssaisDT;1;838078;656;1;1;838145;455;65;right
3;1;102;1800.wav;EssaisDT;1;618325;754;1;1;618342;458;15;left
3;1;219;;EssaisDT;1;1152465;756;1;1;1152715;458;250;left
3;1;249;400.wav;EssaisDT;1;1392485;723;1;1;1392735;458;250;right
3;1;260;400.wav;EssaisDT;1;1462319;615;1;1;1462386;460;65;right
3;1;233;1800.wav;EssaisDT;1;1330784;932;1;1;1330801;462;15;right
3;1;281;;EssaisDT;1;1535470;571;1;1;1536970;462;1500;right
3;1;255;1800.wav;EssaisDT;1;1418619;654;1;1;1418685;464;65;left
3;1;283;1800.wav;EssaisDT;1;1546370;1142;1;1;1546437;468;65;right
3;1;210;400.wav;EssaisDT;1;1118782;533;1;1;1118798;469;15;right
3;1;30;1800.wav;EssaisDT;1;142469;711;1;1;142485;473;15;right
3;1;70;1800.wav;EssaisDT;1;470723;690;1;1;470790;476;65;right
3;1;285;1800.wav;EssaisDT;1;1555971;743;1;1;1556221;476;250;right
3;1;145;400.wav;EssaisDT;1;810261;701;1;1;810278;477;15;left
3;1;167;;EssaisDT;1;922379;734;1;1;922446;478;65;left
3;1;215;400.wav;EssaisDT;1;1137732;695;1;1;1137748;478;15;left
3;1;144;1800.wav;EssaisDT;1;806611;992;1;1;806627;479;15;right
3;1;221;;EssaisDT;1;1161415;794;1;1;1161665;480;250;left
3;1;251;;EssaisDT;1;1401185;770;1;1;1401435;480;250;right
3;1;125;;EssaisDT;1;703793;740;1;1;703859;481;65;right
3;1;173;400.wav;EssaisDT;1;942013;719;1;1;942079;481;65;right
3;1;79;1800.wav;EssaisDT;1;502973;925;1;1;503040;482;65;right
3;1;201;1800.wav;EssaisDT;1;1076864;768;1;1;1076931;482;65;left
3;1;1;1800.wav;EssaisDT;1;33234;1408;1;1;33751;483;65;right
3;1;96;400.wav;EssaisDT;1;565891;716;1;1;565908;483;15;right
3;1;263;400.wav;EssaisDT;1;1473220;679;1;1;1473236;483;15;left
3;1;51;;EssaisDT;1;254470;748;1;1;254487;484;15;left
3;1;28;400.wav;EssaisDT;1;133852;698;1;1;133869;486;15;left
3;1;121;1800.wav;EssaisDT;1;691193;817;1;1;691209;486;15;left
3;1;253;400.wav;EssaisDT;1;1407602;732;1;1;1407852;486;250;left
3;1;12;400.wav;EssaisDT;1;67284;798;1;1;67301;488;15;left
3;1;234;1800.wav;EssaisDT;1;1334284;799;1;1;1335784;488;1500;left
3;1;188;400.wav;EssaisDT;1;996530;770;1;1;998030;489;1500;right
3;1;181;1800.wav;EssaisDT;1;975213;746;1;1;975230;491;15;left
3;1;245;400.wav;EssaisDT;1;1378168;644;1;1;1379668;491;1500;right
3;1;235;1800.wav;EssaisDT;1;1339734;808;1;1;1339751;492;15;right
3;1;276;400.wav;EssaisDT;1;1515353;627;1;1;1515420;492;65;right
3;1;239;1800.wav;EssaisDT;1;1352351;649;1;1;1352368;493;15;left
3;1;217;400.wav;EssaisDT;1;1144049;628;1;1;1145549;494;1500;left
3;1;46;400.wav;EssaisDT;1;233337;615;1;1;234837;495;1500;right
3;1;107;;EssaisDT;1;636942;934;1;1;636959;495;15;left
3;1;148;1800.wav;EssaisDT;1;821444;648;0;1;821511;496;65;right
3;1;81;400.wav;EssaisDT;1;509640;665;1;1;509707;497;65;left
3;1;277;1800.wav;EssaisDT;1;1518537;617;1;1;1518553;499;15;right
3;1;282;1800.wav;EssaisDT;1;1540920;731;1;1;1542420;499;1500;left
3;1;48;400.wav;EssaisDT;1;244403;890;1;1;244470;501;65;right
3;1;230;1800.wav;EssaisDT;1;1319651;639;1;1;1321151;501;1500;right
3;1;275;400.wav;EssaisDT;1;1511787;663;1;1;1511803;503;15;left
3;1;83;400.wav;EssaisDT;1;518274;611;1;1;518290;504;15;left
3;1;211;400.wav;EssaisDT;1;1121848;755;1;1;1122098;506;250;left
3;1;208;;EssaisDT;1;1111648;641;1;1;1111665;507;15;left
3;1;105;400.wav;EssaisDT;1;629808;712;0;1;629875;510;65;right
3;1;40;400.wav;EssaisDT;1;208720;787;1;1;210220;511;1500;right
3;1;53;400.wav;EssaisDT;1;261037;772;1;1;262537;514;1500;left
3;1;101;400.wav;EssaisDT;1;615008;750;1;1;615075;514;65;left
3;1;134;;EssaisDT;1;766927;820;1;1;768427;515;1500;right
3;1;252;1800.wav;EssaisDT;1;1404469;644;1;1;1404485;516;15;right
3;1;193;400.wav;EssaisDT;1;1054197;1250;1;1;1054264;517;65;right
3;1;4;;EssaisDT;1;43834;1306;1;1;44084;518;250;right
3;1;279;1800.wav;EssaisDT;1;1527187;634;1;1;1528687;518;1500;right
3;1;240;400.wav;EssaisDT;1;1355501;613;1;1;1355568;519;65;right
3;1;155;1800.wav;EssaisDT;1;843595;859;1;1;843845;520;250;left
3;1;69;400.wav;EssaisDT;1;467590;701;1;1;467606;521;15;right
3;1;82;400.wav;EssaisDT;1;512824;678;1;1;514324;521;1500;right
3;1;152;;EssaisDT;1;834611;820;1;1;834678;522;65;left
3;1;127;;EssaisDT;1;712576;768;1;1;714076;524;1500;left
3;1;86;1800.wav;EssaisDT;1;530174;766;1;1;530424;526;250;right
3;1;118;400.wav;EssaisDT;1;678209;672;1;1;679709;527;1500;left
3;1;137;400.wav;EssaisDT;1;781527;762;1;1;781594;527;65;left
3;1;189;1800.wav;EssaisDT;1;1001980;731;1;1;1002047;528;65;left
3;1;254;400.wav;EssaisDT;1;1413052;605;1;1;1414552;528;1500;left
3;1;97;400.wav;EssaisDT;1;602475;1080;1;1;602541;530;65;right
3;1;163;400.wav;EssaisDT;1;902412;682;1;1;902429;531;15;right
3;1;207;400.wav;EssaisDT;1;1106081;693;1;1;1107581;531;1500;right
3;1;29;1800.wav;EssaisDT;1;136985;732;1;1;138485;533;1500;left
3;1;140;400.wav;EssaisDT;1;793177;739;1;1;794677;534;1500;right
3;1;241;;EssaisDT;1;1360968;802;1;1;1362468;534;1500;left
3;1;209;400.wav;EssaisDT;1;1114765;855;1;1;1115015;535;250;right
3;1;13;400.wav;EssaisDT;1;70585;896;1;1;70835;536;250;right
3;1;126;400.wav;EssaisDT;1;707076;710;1;1;707326;539;250;left
3;1;184;;EssaisDT;1;984513;915;1;1;984530;539;15;left
3;1;192;;EssaisDT;1;1013814;616;1;1;1015314;539;1500;left
3;1;49;1800.wav;EssaisDT;1;247837;993;1;1;247854;540;15;right
3;1;150;400.wav;EssaisDT;1;828161;687;1;1;828178;543;15;right
3;1;57;400.wav;EssaisDT;1;276337;684;1;1;276587;546;250;right
3;1;73;400.wav;EssaisDT;1;482290;832;1;1;482357;546;65;right
3;1;104;400.wav;EssaisDT;1;624308;824;1;1;625808;546;1500;right
3;1;176;400.wav;EssaisDT;1;953729;1045;1;1;953979;546;250;right
3;1;247;1800.wav;EssaisDT;1;1385818;827;1;1;1385885;546;65;left
3;1;269;400.wav;EssaisDT;1;1489720;860;1;1;1491220;546;1500;left
3;1;262;1800.wav;EssaisDT;1;1467653;620;1;1;1469153;547;1500;right
3;1;185;1800.wav;EssaisDT;1;987913;1110;1;1;987930;548;15;right
3;1;237;400.wav;EssaisDT;1;1345768;670;1;1;1345785;549;15;left
3;1;63;;EssaisDT;1;299071;640;1;1;300571;551;1500;left
3;1;111;400.wav;EssaisDT;1;649125;723;1;1;650625;553;1500;right
3;1;227;;EssaisDT;1;1302951;611;1;1;1303201;553;250;right
3;1;278;400.wav;EssaisDT;1;1521670;710;1;1;1521920;553;250;left
3;1;156;400.wav;EssaisDT;1;846928;797;1;1;846945;557;15;left
3;1;42;400.wav;EssaisDT;1;220070;798;1;1;220320;558;250;left
3;1;143;;EssaisDT;1;802877;1016;0;1;802894;559;15;left
3;1;62;400.wav;EssaisDT;1;293554;666;1;1;295054;561;1500;right
3;1;72;1800.wav;EssaisDT;1;476756;689;1;1;477006;564;250;left
3;1;37;400.wav;EssaisDT;1;200253;861;1;1;200320;565;65;left
3;1;159;400.wav;EssaisDT;1;857961;765;1;1;859462;566;1500;right
3;1;225;1800.wav;EssaisDT;1;1297367;934;1;1;1297434;567;65;right
3;1;98;1800.wav;EssaisDT;1;606292;925;1;1;606308;568;15;right
3;1;177;400.wav;EssaisDT;1;957563;694;1;1;957629;568;65;right
3;1;14;400.wav;EssaisDT;1;74051;810;1;1;74068;569;15;right
3;1;22;400.wav;EssaisDT;1;107368;777;1;1;108868;570;1500;left
3;1;20;400.wav;EssaisDT;1;98502;800;1;1;98518;572;15;left
3;1;124;1800.wav;EssaisDT;1;700493;706;1;1;700559;573;65;left
3;1;274;1800.wav;EssaisDT;1;1506270;584;1;1;1506337;574;65;left
3;1;229;400.wav;EssaisDT;1;1314067;829;1;1;1315567;575;1500;right
3;1;36;1800.wav;EssaisDT;1;196853;878;1;1;197103;576;250;right
3;1;286;400.wav;EssaisDT;1;1561887;636;1;1;1562137;580;250;left
3;1;24;1800.wav;EssaisDT;1;116052;676;1;1;117552;585;1500;left
3;1;190;400.wav;EssaisDT;1;1005347;626;1;1;1005597;586;250;right
3;1;259;400.wav;EssaisDT;1;1459103;685;1;1;1459119;591;15;left
3;1;250;400.wav;EssaisDT;1;1397935;733;1;1;1397952;594;15;right
3;1;267;1800.wav;EssaisDT;1;1484353;664;1;1;1484370;594;15;right
3;1;3;400.wav;EssaisDT;1;40234;1168;1;1;40301;596;65;left
3;1;75;;EssaisDT;1;488523;632;1;1;490023;596;1500;right
3;1;160;400.wav;EssaisDT;1;863478;769;1;1;864978;596;1500;left
3;1;10;1800.wav;EssaisDT;1;61468;969;1;1;61718;599;250;left
3;1;68;1800.wav;EssaisDT;1;464273;854;1;1;464290;600;15;left
3;1;109;1800.wav;EssaisDT;1;642659;1051;1;1;642909;600;250;right
3;1;135;1800.wav;EssaisDT;1;772460;616;1;1;772710;604;250;right
3;1;196;400.wav;EssaisDT;1;1063114;764;1;1;1063181;606;65;left
3;1;271;;EssaisDT;1;1498253;1181;1;1;1498270;609;15;left
3;1;206;;EssaisDT;1;1100515;590;1;1;1102015;611;1500;right
3;1;19;1800.wav;EssaisDT;1;94868;982;1;1;94935;612;65;right
3;1;85;1800.wav;EssaisDT;1;524640;625;1;1;526140;613;1500;left
3;1;112;400.wav;EssaisDT;1;654642;730;1;1;654709;621;65;left
3;1;27;;EssaisDT;1;130502;800;1;1;130569;622;65;right
3;1;147;400.wav;EssaisDT;1;815878;749;1;1;816128;625;250;right
3;1;21;1800.wav;EssaisDT;1;101818;851;1;1;103318;629;1500;right
3;1;18;1800.wav;EssaisDT;1;89285;723;1;1;90785;636;1500;right
3;1;158;400.wav;EssaisDT;1;852378;695;1;1;852628;637;250;right
3;1;175;1800.wav;EssaisDT;1;948163;711;1;1;948413;640;250;left
3;1;139;400.wav;EssaisDT;1;787611;658;1;1;787861;643;250;left
3;1;284;;EssaisDT;1;1550337;538;1;1;1550587;645;250;right
3;1;228;1800.wav;EssaisDT;1;1308451;703;1;1;1308517;646;65;left
3;1;220;1800.wav;EssaisDT;1;1155815;619;1;1;1156065;647;250;right
3;1;117;1800.wav;EssaisDT;1;674442;1176;1;1;674692;656;250;left
3;1;213;;EssaisDT;1;1130048;528;1;1;1130298;659;250;left
3;1;165;1800.wav;EssaisDT;1;911046;623;1;1;912546;661;1500;left
3;1;7;1800.wav;EssaisDT;1;53484;886;1;1;53501;664;15;right
3;1;113;1800.wav;EssaisDT;1;658042;730;1;1;659542;668;1500;left
3;1;200;1800.wav;EssaisDT;1;1073464;843;1;1;1073481;673;15;right
3;1;179;400.wav;EssaisDT;1;963830;704;1;1;965330;678;1500;left
3;1;54;;EssaisDT;1;266487;752;1;1;266737;681;250;left
3;1;47;400.wav;EssaisDT;1;238770;710;1;1;240270;686;1500;left
3;1;17;1800.wav;EssaisDT;1;83668;862;1;1;83918;693;250;left
3;1;288;400.wav;EssaisDT;1;1569737;807;1;1;1569804;698;65;left
3;1;136;400.wav;EssaisDT;1;777994;925;1;1;778060;703;65;right
3;1;35;1800.wav;EssaisDT;1;191236;701;1;1;191486;704;250;right
3;1;242;;EssaisDT;1;1366468;578;1;1;1366718;712;250;left
3;1;129;1800.wav;EssaisDT;1;747127;1230;1;1;747143;713;15;right
3;1;180;1800.wav;EssaisDT;1;969513;960;1;1;969763;716;250;left
3;1;202;1800.wav;EssaisDT;1;1080398;616;1;1;1081898;717;1500;left
3;1;204;1800.wav;EssaisDT;1;1091848;669;1;1;1092098;718;250;right
3;1;166;1800.wav;EssaisDT;1;916646;714;1;1;916896;727;250;left
3;1;66;1800.wav;EssaisDT;1;455740;572;1;1;457240;748;1500;right
3;1;33;400.wav;EssaisDT;1;184353;1657;1;1;184369;764;15;left
3;1;116;400.wav;EssaisDT;1;668726;612;1;1;668976;765;250;right
3;1;133;1800.wav;EssaisDT;1;761144;743;1;1;762644;787;1500;left
3;1;131;400.wav;EssaisDT;1;753177;770;1;1;753427;811;250;right
3;1;203;1800.wav;EssaisDT;1;1086064;847;1;1;1087564;812;1500;left
3;1;65;400.wav;EssaisDT;1;451839;1326;1;1;451906;954;65;left
3;1;41;400.wav;EssaisDT;1;214170;777;1;1;214420;967;250;left
3;1;26;;EssaisDT;1;124502;1012;1;1;124569;1035;65;left
3;1;170;;EssaisDT;1;931646;796;1;1;933146;1131;1500;right
3;1;89;1800.wav;EssaisDT;1;541241;699;1;1;542741;1177;1500;left
4;1;42;1800.wav;EssaisDT;1;216528;1278;1;1;216545;310;15;left
4;1;255;400.wav;EssaisDT;1;1255509;726;1;1;1255759;313;250;left
4;1;183;1800.wav;EssaisDT;1;885887;825;1;1;885904;328;15;left
4;1;180;400.wav;EssaisDT;1;876220;750;1;1;876470;338;250;right
4;1;27;400.wav;EssaisDT;1;130627;922;1;1;130877;346;250;right
4;1;248;;EssaisDT;1;1230625;899;1;1;1230692;349;65;right
4;1;241;;EssaisDT;1;1203141;890;1;1;1203208;360;65;left
4;1;73;1800.wav;EssaisDT;1;362447;892;1;1;362697;365;250;right
4;1;36;1800.wav;EssaisDT;1;197261;1068;1;1;197328;384;65;right
4;1;92;;EssaisDT;1;429281;763;0;1;429531;384;250;left
4;1;277;1800.wav;EssaisDT;1;1391510;829;1;1;1391577;384;65;right
4;1;182;1800.wav;EssaisDT;1;882854;452;1;1;882870;386;15;right
4;1;185;400.wav;EssaisDT;1;892137;1145;1;1;892387;386;250;left
4;1;116;400.wav;EssaisDT;1;561316;853;1;1;561566;399;250;left
4;1;129;400.wav;EssaisDT;1;644917;1239;1;1;645167;407;250;right
4;1;164;1800.wav;EssaisDT;1;818653;690;1;1;818720;410;65;right
4;1;158;400.wav;EssaisDT;1;758235;783;1;1;758485;411;250;left
4;1;136;1800.wav;EssaisDT;1;669434;785;1;1;669451;413;15;right
4;1;126;400.wav;EssaisDT;1;604550;1455;1;1;604617;415;65;left
4;1;138;1800.wav;EssaisDT;1;676451;1229;1;1;676701;415;250;left
4;1;179;400.wav;EssaisDT;1;872337;277;1;1;872404;416;65;left
4;1;203;1800.wav;EssaisDT;1;1028406;564;0;1;1028422;418;15;right
4;1;279;400.wav;EssaisDT;1;1400694;956;1;1;1400760;419;65;right
4;1;71;400.wav;EssaisDT;1;353230;856;1;1;353247;423;15;right
4;1;243;400.wav;EssaisDT;1;1209058;523;1;1;1209308;429;250;right
4;1;102;400.wav;EssaisDT;1;512099;679;1;1;512166;430;65;left
4;1;53;400.wav;EssaisDT;1;257195;678;1;1;258696;431;1500;left
4;1;62;1800.wav;EssaisDT;1;297963;1022;1;1;298029;431;65;right
4;1;275;400.wav;EssaisDT;1;1382544;811;1;1;1382560;432;15;right
4;1;70;;EssaisDT;1;349747;832;1;1;349763;436;15;left
4;1;124;1800.wav;EssaisDT;1;595583;2475;1;1;595833;436;250;right
4;1;231;1800.wav;EssaisDT;1;1167557;804;1;1;1167574;437;15;right
4;1;95;400.wav;EssaisDT;1;441931;653;1;1;442181;438;250;left
4;1;284;400.wav;EssaisDT;1;1420511;758;1;1;1420527;438;15;left
4;1;76;400.wav;EssaisDT;1;371530;942;1;1;371547;442;15;right
4;1;10;400.wav;EssaisDT;1;60810;1030;0;1;60826;444;15;left
4;1;120;;EssaisDT;1;575483;736;1;1;575550;444;65;left
4;1;32;400.wav;EssaisDT;1;147394;742;0;1;147461;445;65;left
4;1;217;1800.wav;EssaisDT;1;1085523;679;1;1;1085590;445;65;right
4;1;225;400.wav;EssaisDT;1;1141740;1171;1;1;1141990;449;250;left
4;1;259;1800.wav;EssaisDT;1;1323976;922;0;1;1324226;449;250;right
4;1;266;400.wav;EssaisDT;1;1351643;725;1;1;1351660;452;15;left
4;1;181;1800.wav;EssaisDT;1;879470;762;1;1;879720;454;250;right
4;1;210;1800.wav;EssaisDT;1;1058706;1489;1;1;1058956;454;250;left
4;1;176;400.wav;EssaisDT;1;862037;756;1;1;862103;455;65;right
4;1;237;400.wav;EssaisDT;1;1189541;914;1;1;1189608;456;65;left
4;1;45;400.wav;EssaisDT;1;226778;836;1;1;226795;457;15;left
4;1;133;400.wav;EssaisDT;1;661951;679;1;1;662017;457;65;right
4;1;107;1800.wav;EssaisDT;1;530199;1051;1;1;530216;458;15;left
4;1;260;;EssaisDT;1;1327460;836;0;1;1327710;458;250;left
4;1;151;1800.wav;EssaisDT;1;726468;781;1;1;726485;459;15;left
4;1;85;400.wav;EssaisDT;1;407064;722;1;1;407131;460;65;right
4;1;220;;EssaisDT;1;1098307;756;1;1;1098373;465;65;right
4;1;6;1800.wav;EssaisDT;1;44809;962;1;1;44826;471;15;right
4;1;246;400.wav;EssaisDT;1;1223191;784;1;1;1224692;471;1500;right
4;1;212;400.wav;EssaisDT;1;1065873;760;1;1;1066123;475;250;right
4;1;25;400.wav;EssaisDT;1;119694;738;1;1;119944;478;250;left
4;1;249;1800.wav;EssaisDT;1;1234142;838;1;1;1234158;479;15;left
4;1;283;1800.wav;EssaisDT;1;1415061;631;1;1;1415311;479;250;right
4;1;17;1800.wav;EssaisDT;1;86977;1002;1;1;87227;480;250;right
4;1;157;1800.wav;EssaisDT;1;754319;910;1;1;754385;481;65;left
4;1;43;400.wav;EssaisDT;1;220428;756;1;1;220445;485;15;right
4;1;146;400.wav;EssaisDT;1;709618;802;1;1;709635;485;15;right
4;1;117;400.wav;EssaisDT;1;564650;672;1;1;564666;486;15;right
4;1;227;400.wav;EssaisDT;1;1151157;683;1;1;1151407;486;250;right
4;1;69;1800.wav;EssaisDT;1;346547;739;1;1;346563;487;15;right
4;1;194;;EssaisDT;1;995488;962;1;1;996989;487;1500;right
4;1;235;;EssaisDT;1;1184141;710;1;1;1184208;490;65;left
4;1;263;400.wav;EssaisDT;1;1338776;749;1;1;1338793;492;15;right
4;1;201;400.wav;EssaisDT;1;1021822;846;1;1;1021889;494;65;left
4;1;186;400.wav;EssaisDT;1;895854;609;1;1;897354;497;1500;right
4;1;127;1800.wav;EssaisDT;1;608583;691;1;1;608600;499;15;left
4;1;152;;EssaisDT;1;730235;912;1;1;730252;499;15;right
4;1;91;1800.wav;EssaisDT;1;425964;710;1;1;425981;500;15;left
4;1;22;400.wav;EssaisDT;1;107227;795;1;1;107294;501;65;left
4;1;143;1800.wav;EssaisDT;1;697485;754;1;1;697551;503;65;left
4;1;254;1800.wav;EssaisDT;1;1251659;1176;1;1;1251725;503;65;right
4;1;33;;EssaisDT;1;180544;1047;1;1;182045;505;1500;right
4;1;83;1800.wav;EssaisDT;1;397814;1076;1;1;397831;505;15;right
4;1;252;1800.wav;EssaisDT;1;1245942;958;0;1;1245958;507;15;right
4;1;262;1800.wav;EssaisDT;1;1333310;1197;1;1;1334810;510;1500;right
4;1;24;;EssaisDT;1;116410;748;1;1;116477;511;65;right
4;1;218;400.wav;EssaisDT;1;1088873;1005;1;1;1090373;511;1500;left
4;1;274;;EssaisDT;1;1379310;704;1;1;1379377;511;65;left
4;1;207;;EssaisDT;1;1045539;334;1;1;1045556;514;15;right
4;1;26;1800.wav;EssaisDT;1;125144;746;1;1;125394;516;250;right
4;1;149;400.wav;EssaisDT;1;720752;962;1;1;721002;516;250;right
4;1;229;400.wav;EssaisDT;1;1159557;513;1;1;1161057;517;1500;left
4;1;5;1800.wav;EssaisDT;1;39343;765;1;1;40843;520;1500;right
4;1;160;400.wav;EssaisDT;1;764952;803;1;1;764969;520;15;left
4;1;97;1800.wav;EssaisDT;1;490282;1071;1;1;491782;521;1500;left
4;1;11;;EssaisDT;1;64660;843;1;1;64910;522;250;right
4;1;202;400.wav;EssaisDT;1;1025139;658;1;1;1025206;522;65;right
4;1;98;;EssaisDT;1;495715;709;1;1;497215;526;1500;right
4;1;112;400.wav;EssaisDT;1;545733;1011;1;1;545983;526;250;right
4;1;118;400.wav;EssaisDT;1;567850;682;1;1;569350;528;1500;left
4;1;130;400.wav;EssaisDT;1;648967;916;1;1;648984;530;15;right
4;1;208;400.wav;EssaisDT;1;1051039;502;1;1;1051289;530;250;right
4;1;104;1800.wav;EssaisDT;1;518849;784;1;1;518866;533;15;left
4;1;233;1800.wav;EssaisDT;1;1176624;809;1;1;1176874;534;250;right
4;1;270;1800.wav;EssaisDT;1;1368510;946;1;1;1368527;534;15;right
4;1;82;1800.wav;EssaisDT;1;392314;699;1;1;393814;536;1500;left
4;1;219;;EssaisDT;1;1094356;829;1;1;1094373;537;15;right
4;1;238;;EssaisDT;1;1193308;927;1;1;1194808;539;1500;right
4;1;4;400.wav;EssaisDT;1;35643;969;1;1;35709;540;65;right
4;1;93;400.wav;EssaisDT;1;432564;971;1;1;432631;541;65;right
4;1;251;1800.wav;EssaisDT;1;1240308;602;1;1;1241808;549;1500;left
4;1;131;400.wav;EssaisDT;1;652684;740;1;1;652934;554;250;left
4;1;162;1800.wav;EssaisDT;1;807303;765;1;1;808803;555;1500;right
4;1;177;400.wav;EssaisDT;1;865403;1054;1;1;865420;556;15;right
4;1;281;1800.wav;EssaisDT;1;1407294;592;1;1;1408794;557;1500;right
4;1;122;;EssaisDT;1;584500;678;1;1;586000;558;1500;right
4;1;14;1800.wav;EssaisDT;1;73626;843;1;1;75126;562;1500;right
4;1;155;400.wav;EssaisDT;1;745285;394;1;1;745535;562;250;right
4;1;108;1800.wav;EssaisDT;1;533882;791;1;1;533949;563;65;right
4;1;222;400.wav;EssaisDT;1;1107190;959;1;1;1107207;563;15;left
4;1;268;400.wav;EssaisDT;1;1357477;436;1;1;1358977;564;1500;left
4;1;139;1800.wav;EssaisDT;1;680384;866;1;1;681884;565;1500;right
4;1;123;1800.wav;EssaisDT;1;590050;535;1;1;591550;566;1500;left
4;1;141;1800.wav;EssaisDT;1;691518;929;1;1;691585;568;65;right
4;1;54;1800.wav;EssaisDT;1;262579;928;1;1;264079;572;1500;left
4;1;269;400.wav;EssaisDT;1;1362993;427;1;1;1363243;572;250;left
4;1;46;400.wav;EssaisDT;1;230112;654;1;1;231612;573;1500;left
4;1;60;400.wav;EssaisDT;1;290246;937;1;1;291746;573;1500;right
4;1;109;1800.wav;EssaisDT;1;537216;861;1;1;537283;573;65;right
4;1;278;400.wav;EssaisDT;1;1395127;683;1;1;1396627;575;1500;right
4;1;154;1800.wav;EssaisDT;1;739702;619;1;1;741202;578;1500;right
4;1;214;1800.wav;EssaisDT;1;1072373;601;1;1;1073873;583;1500;left
4;1;245;;EssaisDT;1;1217625;601;1;1;1219125;583;1500;left
4;1;78;1800.wav;EssaisDT;1;378497;711;1;1;378514;584;15;left
4;1;276;400.wav;EssaisDT;1;1385944;666;1;1;1387444;588;1500;left
4;1;31;1800.wav;EssaisDT;1;144127;777;1;1;144194;592;65;right
4;1;115;;EssaisDT;1;557883;667;1;1;557899;595;15;right
4;1;206;;EssaisDT;1;1040006;755;1;1;1041506;596;1500;right
4;1;163;400.wav;EssaisDT;1;813003;574;1;1;813069;602;65;left
4;1;190;400.wav;EssaisDT;1;915037;776;1;1;916537;606;1500;left
4;1;51;1800.wav;EssaisDT;1;248095;802;1;1;249595;609;1500;right
4;1;287;400.wav;EssaisDT;1;1431061;885;1;1;1431311;613;250;right
4;1;256;400.wav;EssaisDT;1;1258742;756;1;1;1258759;615;15;left
4;1;86;400.wav;EssaisDT;1;410298;788;1;1;411798;617;1500;right
4;1;50;1800.wav;EssaisDT;1;244479;1045;0;1;244545;620;65;left
4;1;195;;EssaisDT;1;1000905;762;1;1;1000972;620;65;right
4;1;101;400.wav;EssaisDT;1;506532;635;1;1;506782;624;250;right
4;1;81;;EssaisDT;1;386731;839;1;1;388231;628;1500;left
4;1;59;1800.wav;EssaisDT;1;284663;585;1;1;284913;634;250;left
4;1;75;400.wav;EssaisDT;1;368230;766;1;1;368297;634;65;left
4;1;37;400.wav;EssaisDT;1;201028;1048;1;1;201278;638;250;left
4;1;171;1800.wav;EssaisDT;1;839236;814;1;1;840736;642;1500;right
4;1;211;1800.wav;EssaisDT;1;1062623;748;1;1;1062639;642;15;left
4;1;166;400.wav;EssaisDT;1;824186;659;1;1;825686;645;1500;left
4;1;18;400.wav;EssaisDT;1;90827;823;1;1;92327;647;1500;left
4;1;55;1800.wav;EssaisDT;1;268112;775;1;1;268362;647;250;right
4;1;47;400.wav;EssaisDT;1;235645;920;1;1;235712;651;65;left
4;1;3;400.wav;EssaisDT;1;30026;825;1;1;31526;663;1500;left
4;1;199;400.wav;EssaisDT;1;1016422;717;1;1;1016439;663;15;left
4;1;34;1800.wav;EssaisDT;1;185978;759;1;1;187478;675;1500;left
4;1;84;400.wav;EssaisDT;1;401414;678;1;1;401664;680;250;right
4;1;191;1800.wav;EssaisDT;1;920604;894;1;1;920854;684;250;left
4;1;204;400.wav;EssaisDT;1;1031539;1350;1;1;1033039;693;1500;left
4;1;52;;EssaisDT;1;253679;867;1;1;253745;694;65;left
4;1;232;400.wav;EssaisDT;1;1170957;905;1;1;1171207;699;250;left
4;1;96;;EssaisDT;1;447365;661;1;1;448865;703;1500;right
4;1;105;1800.wav;EssaisDT;1;522149;967;1;1;522399;703;250;left
4;1;67;400.wav;EssaisDT;1;338763;757;1;1;339013;704;250;left
4;1;257;400.wav;EssaisDT;1;1316493;1235;1;1;1316559;711;65;left
4;1;221;1800.wav;EssaisDT;1;1101523;580;1;1;1103023;723;1500;right
4;1;114;400.wav;EssaisDT;1;552199;690;1;1;553699;724;1500;right
4;1;226;1800.wav;EssaisDT;1;1145457;732;1;1;1145474;736;15;left
4;1;35;1800.wav;EssaisDT;1;191578;1387;1;1;193078;737;1500;right
4;1;23;1800.wav;EssaisDT;1;110710;802;1;1;110960;742;250;left
4;1;216;1800.wav;EssaisDT;1;1079823;913;1;1;1080073;747;250;left
4;1;140;400.wav;EssaisDT;1;685901;830;1;1;687401;754;1500;left
4;1;121;400.wav;EssaisDT;1;578766;568;1;1;578783;755;15;left
4;1;16;;EssaisDT;1;81260;748;1;1;81510;767;250;left
4;1;147;400.wav;EssaisDT;1;712968;459;1;1;713218;768;250;left
4;1;72;1800.wav;EssaisDT;1;356747;710;1;1;356763;772;15;left
4;1;172;;EssaisDT;1;844837;740;1;1;844853;774;15;left
4;1;57;400.wav;EssaisDT;1;276896;611;1;1;277146;777;250;right
4;1;94;1800.wav;EssaisDT;1;436198;728;1;1;436264;783;65;left
4;1;285;;EssaisDT;1;1424394;920;1;1;1424461;786;65;left
4;1;189;;EssaisDT;1;909371;694;1;1;910871;787;1500;left
4;1;20;400.wav;EssaisDT;1;98510;653;1;1;98577;788;65;left
4;1;153;400.wav;EssaisDT;1;733852;587;1;1;735352;835;1500;left
4;1;28;1800.wav;EssaisDT;1;134161;656;1;1;134177;840;15;right
4;1;145;;EssaisDT;1;703785;408;1;1;703851;846;65;right
4;1;2;1800.wav;EssaisDT;1;23659;1193;1;1;24192;890;15;left
4;1;187;;EssaisDT;1;901321;739;1;1;901387;896;65;right
4;1;7;400.wav;EssaisDT;1;48543;808;1;1;48559;1005;15;right
4;1;175;1800.wav;EssaisDT;1;855953;441;1;1;856020;1112;65;left
4;1;197;1800.wav;EssaisDT;1;1007022;570;1;1;1007089;1114;65;left
4;1;265;1800.wav;EssaisDT;1;1345493;721;1;1;1345743;1184;250;left
4;1;65;400.wav;EssaisDT;1;329846;2187;1;1;329913;1380;65;right
5;1;149;;EssaisDT;1;916906;969;1;1;916922;275;15;right
5;1;84;1800.wav;EssaisDT;1;433716;652;1;1;433783;287;65;right
5;1;85;1800.wav;EssaisDT;1;436883;584;1;1;437133;287;250;left
5;1;239;400.wav;EssaisDT;1;1411762;796;1;1;1411779;298;15;left
5;1;61;400.wav;EssaisDT;1;317965;612;1;1;319465;301;1500;right
5;1;88;400.wav;EssaisDT;1;445816;1241;1;1;445883;308;65;right
5;1;37;1800.wav;EssaisDT;1;232480;1316;1;1;233980;311;1500;right
5;1;179;;EssaisDT;1;1071824;961;1;1;1071841;313;15;right
5;1;230;400.wav;EssaisDT;1;1377878;708;1;1;1377945;316;65;right
5;1;50;1800.wav;EssaisDT;1;277614;730;1;1;277631;326;15;right
5;1;275;400.wav;EssaisDT;1;1625965;1226;1;1;1626032;326;65;right
5;1;82;;EssaisDT;1;424683;1048;1;1;424933;329;250;left
5;1;178;400.wav;EssaisDT;1;1068391;705;1;1;1068641;330;250;right
5;1;237;1800.wav;EssaisDT;1;1402579;925;1;1;1402595;334;15;right
5;1;130;1800.wav;EssaisDT;1;840588;553;1;1;840655;336;65;right
5;1;123;400.wav;EssaisDT;1;640885;1300;1;1;642385;337;1500;right
5;1;134;400.wav;EssaisDT;1;850672;1176;1;1;850738;337;65;right
5;1;81;400.wav;EssaisDT;1;419399;671;1;1;420899;338;1500;right
5;1;92;400.wav;EssaisDT;1;464233;748;1;1;464250;339;15;right
5;1;118;;EssaisDT;1;621319;852;1;1;621335;340;15;left
5;1;108;1800.wav;EssaisDT;1;577468;951;1;1;577485;341;15;right
5;1;6;1800.wav;EssaisDT;1;57444;1056;1;1;57511;342;65;right
5;1;157;;EssaisDT;1;946206;879;1;1;946273;343;65;right
5;1;126;;EssaisDT;1;653669;1315;1;1;653686;345;15;right
5;1;276;1800.wav;EssaisDT;1;1629698;598;1;1;1629715;345;15;right
5;1;39;;EssaisDT;1;240797;1039;1;1;240864;346;65;left
5;1;160;;EssaisDT;1;958990;789;1;1;959240;347;250;right
5;1;274;400.wav;EssaisDT;1;1620665;1134;1;1;1622165;347;1500;left
5;1;209;1800.wav;EssaisDT;1;1227493;755;1;1;1227510;349;15;right
5;1;135;400.wav;EssaisDT;1;854555;3433;1;1;854572;353;15;right
5;1;190;400.wav;EssaisDT;1;1112158;790;1;1;1112408;355;250;right
5;1;153;;EssaisDT;1;935106;1116;1;1;935123;357;15;right
5;1;180;400.wav;EssaisDT;1;1075541;704;1;1;1075558;359;15;left
5;1;112;400.wav;EssaisDT;1;593418;955;1;1;593435;360;15;left
5;1;27;1800.wav;EssaisDT;1;139279;1442;1;1;139296;363;15;right
5;1;265;1800.wav;EssaisDT;1;1592365;624;1;1;1593865;365;1500;right
5;1;158;400.wav;EssaisDT;1;949906;642;1;1;951406;366;1500;right
5;1;233;400.wav;EssaisDT;1;1390112;557;1;1;1390179;366;65;right
5;1;270;;EssaisDT;1;1609848;700;1;1;1609915;366;65;right
5;1;222;400.wav;EssaisDT;1;1271860;736;1;1;1272110;367;250;right
5;1;285;400.wav;EssaisDT;1;1663182;582;1;1;1663199;367;15;right
5;1;10;400.wav;EssaisDT;1;72895;767;1;1;74395;369;1500;right
5;1;189;400.wav;EssaisDT;1;1108892;756;1;1;1108958;371;65;right
5;1;117;1800.wav;EssaisDT;1;615902;767;1;1;617402;374;1500;right
5;1;151;1800.wav;EssaisDT;1;926073;664;1;1;927573;378;1500;right
5;1;266;1800.wav;EssaisDT;1;1597731;828;1;1;1597798;379;65;left
5;1;58;;EssaisDT;1;305148;972;1;1;305398;381;250;right
5;1;15;400.wav;EssaisDT;1;93662;784;1;1;93678;382;15;left
5;1;48;400.wav;EssaisDT;1;271331;1531;1;1;271397;382;65;right
5;1;184;1800.wav;EssaisDT;1;1092908;803;1;1;1092925;382;15;right
5;1;238;1800.wav;EssaisDT;1;1406362;774;1;1;1407862;383;1500;right
5;1;75;1800.wav;EssaisDT;1;399216;843;1;1;399466;384;250;right
5;1;20;1800.wav;EssaisDT;0;111979;0;1;1;113479;386;1500;left
5;1;21;1800.wav;EssaisDT;0;117329;0;1;1;117395;386;65;left
5;1;45;400.wav;EssaisDT;1;260680;630;1;1;262181;386;1500;right
5;1;60;1800.wav;EssaisDT;1;312614;1395;1;1;314115;388;1500;right
5;1;199;400.wav;EssaisDT;1;1189176;762;1;1;1189426;388;250;right
5;1;162;400.wav;EssaisDT;1;1014257;654;1;1;1014324;389;65;right
5;1;22;400.wav;EssaisDT;1;122679;757;1;1;122695;392;15;right
5;1;35;1800.wav;EssaisDT;1;225047;707;1;1;225063;392;15;left
5;1;279;400.wav;EssaisDT;1;1640482;783;1;1;1640732;393;250;left
5;1;121;400.wav;EssaisDT;1;631852;563;1;1;631869;395;15;left
5;1;165;400.wav;EssaisDT;1;1024090;729;1;1;1024340;396;250;left
5;1;186;400.wav;EssaisDT;1;1098191;601;1;1;1099691;396;1500;right
5;1;18;1800.wav;EssaisDT;1;104712;1437;1;1;104962;401;250;right
5;1;194;400.wav;EssaisDT;1;1173109;608;0;1;1173176;402;65;right
5;1;140;400.wav;EssaisDT;1;880055;1000;1;1;880305;403;250;right
5;1;231;1800.wav;EssaisDT;1;1381145;552;1;1;1381395;403;250;right
5;1;223;400.wav;EssaisDT;1;1275444;737;1;1;1276944;404;1500;right
5;1;203;400.wav;EssaisDT;1;1204660;909;1;1;1204726;406;65;right
5;1;257;;EssaisDT;1;1562748;1108;1;1;1564248;406;1500;right
5;1;182;400.wav;EssaisDT;1;1082091;545;1;1;1083591;407;1500;right
5;1;74;1800.wav;EssaisDT;1;393882;774;1;1;395382;411;1500;right
5;1;114;1800.wav;EssaisDT;1;603418;794;1;1;604918;411;1500;left
5;1;226;1800.wav;EssaisDT;1;1363695;895;1;1;1365195;412;1500;left
5;1;138;1800.wav;EssaisDT;1;869105;822;1;1;870605;414;1500;right
5;1;120;1800.wav;EssaisDT;1;628285;803;1;1;628352;415;65;right
5;1;40;;EssaisDT;1;244430;954;1;1;244497;418;65;right
5;1;101;400.wav;EssaisDT;1;553834;748;1;1;554084;418;250;right
5;1;205;;EssaisDT;1;1211493;774;1;1;1212993;418;1500;left
5;1;280;400.wav;EssaisDT;1;1643915;123;1;1;1644165;418;250;right
5;1;253;1800.wav;EssaisDT;1;1465530;797;0;1;1465780;419;250;right
5;1;113;1800.wav;EssaisDT;1;597985;612;1;1;598235;421;250;left
5;1;164;400.wav;EssaisDT;1;1020907;673;1;1;1020974;421;65;left
5;1;210;400.wav;EssaisDT;1;1231010;977;1;1;1231027;421;15;left
5;1;187;400.wav;EssaisDT;1;1103525;594;1;1;1103542;422;15;left
5;1;32;400.wav;EssaisDT;1;159496;738;1;1;159746;423;250;right
5;1;228;400.wav;EssaisDT;1;1372528;748;1;1;1372545;423;15;right
5;1;284;1800.wav;EssaisDT;1;1659632;664;1;1;1659649;423;15;left
5;1;202;400.wav;EssaisDT;1;1200893;1316;1;1;1200959;424;65;left
5;1;286;1800.wav;EssaisDT;1;1666299;686;1;1;1667799;425;1500;right
5;1;55;;EssaisDT;1;293781;549;1;1;293798;426;15;left
5;1;204;1800.wav;EssaisDT;1;1208310;654;1;1;1208326;426;15;left
5;1;59;400.wav;EssaisDT;1;309264;850;1;1;309281;427;15;left
5;1;181;;EssaisDT;1;1078775;779;1;1;1078841;428;65;left
5;1;172;400.wav;EssaisDT;1;1044891;877;1;1;1044957;431;65;right
5;1;252;400.wav;EssaisDT;1;1461830;831;1;1;1461896;432;65;right
5;1;68;1800.wav;EssaisDT;1;370232;729;1;1;370299;433;65;left
5;1;11;;EssaisDT;1;78211;1091;1;1;78278;434;65;right
5;1;29;1800.wav;EssaisDT;1;147246;748;1;1;148746;434;1500;left
5;1;111;400.wav;EssaisDT;1;587668;627;1;1;589168;434;1500;right
5;1;17;1800.wav;EssaisDT;1;100428;1523;1;1;100495;435;65;left
5;1;54;1800.wav;EssaisDT;1;290448;814;1;1;290514;435;65;left
5;1;83;400.wav;EssaisDT;1;428333;711;1;1;429833;436;1500;left
5;1;234;;EssaisDT;1;1393379;1243;1;1;1393395;436;15;left
5;1;42;1800.wav;EssaisDT;1;251447;772;1;1;251697;437;250;left
5;1;171;;EssaisDT;1;1039891;1837;1;1;1040141;437;250;left
5;1;34;400.wav;EssaisDT;1;219680;938;1;1;221180;439;1500;left
5;1;183;1800.wav;EssaisDT;1;1087525;629;1;1;1087775;440;250;left
5;1;232;;EssaisDT;1;1386495;762;1;1;1386745;441;250;left
5;1;13;;EssaisDT;1;84045;1510;1;1;84295;445;250;left
5;1;217;1800.wav;EssaisDT;1;1254610;952;1;1;1254677;446;65;left
5;1;243;;EssaisDT;1;1423962;979;1;1;1423979;446;15;left
5;1;52;;EssaisDT;1;284264;849;1;1;284281;447;15;right
5;1;64;400.wav;EssaisDT;1;327331;722;1;1;328831;447;1500;left
5;1;139;1800.wav;EssaisDT;1;874622;756;1;1;876122;448;1500;left
5;1;174;1800.wav;EssaisDT;1;1053941;736;1;1;1054008;448;65;left
5;1;208;400.wav;EssaisDT;1;1222076;772;1;1;1223576;449;1500;left
5;1;244;1800.wav;EssaisDT;1;1428112;987;1;1;1429612;451;1500;left
5;1;262;1800.wav;EssaisDT;1;1582881;683;1;1;1584381;451;1500;left
5;1;14;400.wav;EssaisDT;1;88262;862;1;1;89762;453;1500;left
5;1;201;;EssaisDT;1;1195426;539;1;1;1196926;453;1500;right
5;1;260;;EssaisDT;1;1574431;652;1;1;1574681;454;250;left
5;1;51;400.wav;EssaisDT;1;280914;878;1;1;281164;456;250;left
5;1;261;;EssaisDT;1;1579814;548;1;1;1579831;457;15;right
5;1;96;1800.wav;EssaisDT;1;475100;646;1;1;475117;461;15;left
5;1;193;1800.wav;EssaisDT;1;1167626;1445;1;1;1169126;466;1500;right
5;1;161;1800.wav;EssaisDT;1;1010324;1185;1;1;1010340;467;15;left
5;1;69;400.wav;EssaisDT;1;373632;968;1;1;373699;469;65;right
5;1;224;400.wav;EssaisDT;1;1281177;995;1;1;1282677;471;1500;left
5;1;176;1800.wav;EssaisDT;1;1059424;602;1;1;1060924;476;1500;left
5;1;288;400.wav;EssaisDT;1;1675249;3124;1;1;1676749;478;1500;left
5;1;273;;EssaisDT;1;1617015;826;1;1;1617265;479;250;right
5;1;259;1800.wav;EssaisDT;1;1571081;827;1;1;1571098;480;15;right
5;1;67;1800.wav;EssaisDT;1;364782;511;1;1;366282;481;1500;left
5;1;227;1800.wav;EssaisDT;1;1369128;612;1;1;1369195;481;65;left
5;1;127;400.wav;EssaisDT;1;657852;1311;1;1;657869;483;15;left
5;1;43;1800.wav;EssaisDT;1;254914;1115;1;1;254930;488;15;left
5;1;89;1800.wav;EssaisDT;1;449800;628;1;1;451300;489;1500;left
5;1;31;;EssaisDT;1;156012;1025;1;1;156262;490;250;left
5;1;100;400.wav;EssaisDT;1;548401;788;1;1;549901;491;1500;left
5;1;173;1800.wav;EssaisDT;1;1048491;773;1;1;1049991;493;1500;left
5;1;254;400.wav;EssaisDT;1;1470246;1016;1;1;1471746;498;1500;right
5;1;150;1800.wav;EssaisDT;1;920572;745;1;1;922072;499;1500;left
5;1;8;400.wav;EssaisDT;1;64095;718;1;1;65595;504;1500;right
5;1;80;400.wav;EssaisDT;1;413932;483;1;1;413999;504;65;left
5;1;107;;EssaisDT;1;572018;584;1;1;572268;506;250;right
5;1;147;400.wav;EssaisDT;1;907306;1125;1;1;908806;506;1500;left
5;1;247;1800.wav;EssaisDT;1;1441563;3140;1;1;1441629;506;65;right
5;1;268;400.wav;EssaisDT;1;1603098;875;1;1;1603115;506;15;left
5;1;213;1800.wav;EssaisDT;1;1239793;867;1;1;1239810;511;15;right
5;1;250;400.wav;EssaisDT;1;1452563;3;1;1;1452579;517;15;left
5;1;73;;EssaisDT;1;390315;1088;1;1;390566;527;250;right
5;1;9;400.wav;EssaisDT;1;69528;868;1;1;69778;529;250;left
5;1;251;400.wav;EssaisDT;1;1458046;1093;1;1;1458296;541;250;left
5;1;116;1800.wav;EssaisDT;1;612418;930;1;1;612485;543;65;left
5;1;142;1800.wav;EssaisDT;1;888089;849;1;1;888339;544;250;left
5;1;246;400.wav;EssaisDT;1;1436946;951;1;1;1437196;545;250;right
5;1;26;400.wav;EssaisDT;1;135129;1548;1;1;135379;549;250;right
5;1;115;400.wav;EssaisDT;1;608818;885;1;1;609068;550;250;left
5;1;249;400.wav;EssaisDT;1;1449096;890;1;1;1449163;550;65;left
5;1;198;1800.wav;EssaisDT;1;1185676;847;1;1;1185743;557;65;left
5;1;148;1800.wav;EssaisDT;1;912856;1109;1;1;912872;558;15;left
5;1;211;;EssaisDT;1;1234427;903;1;1;1234677;561;250;left
5;1;57;400.wav;EssaisDT;1;299648;585;1;1;299898;562;250;left
5;1;195;;EssaisDT;1;1176392;876;1;1;1176642;570;250;right
5;1;90;;EssaisDT;1;455216;833;1;1;455233;572;15;right
5;1;159;400.wav;EssaisDT;1;955223;971;1;1;955290;572;65;left
5;1;256;400.wav;EssaisDT;1;1478813;1014;1;1;1478880;593;65;left
5;1;28;400.wav;EssaisDT;1;143512;885;1;1;143529;597;15;right
5;1;143;;EssaisDT;1;891522;3931;1;1;891589;598;65;left
5;1;125;400.wav;EssaisDT;1;649086;771;1;0;649336;604;250;right
5;1;91;400.wav;EssaisDT;1;458616;576;1;1;458683;609;65;left
5;1;16;;EssaisDT;1;97012;835;0;1;97028;621;15;left
5;1;99;1800.wav;EssaisDT;1;544801;913;1;1;544818;636;15;right
5;1;76;1800.wav;EssaisDT;1;402632;772;1;1;402649;639;15;left
5;1;278;400.wav;EssaisDT;1;1634848;915;1;1;1635098;641;250;left
5;1;166;400.wav;EssaisDT;1;1027441;56;1;1;1027691;655;250;left
5;1;129;1800.wav;EssaisDT;1;836438;1505;1;1;836505;659;65;left
5;1;122;1800.wav;EssaisDT;1;635252;550;1;1;636752;664;1500;left
5;1;163;1800.wav;EssaisDT;1;1017374;989;1;1;1017624;676;250;right
5;1;282;;EssaisDT;1;1652599;806;1;1;1652665;698;65;left
5;1;72;1800.wav;EssaisDT;1;386865;947;1;1;386932;719;65;right
5;1;219;400.wav;EssaisDT;1;1260160;933;1;1;1260410;737;250;left
5;1;3;400.wav;EssaisDT;1;47361;1015;1;1;47611;771;250;right
5;1;97;1800.wav;EssaisDT;1;538467;1149;0;1;538534;791;65;right
5;1;106;1800.wav;EssaisDT;1;568468;903;1;1;568535;794;65;left
5;1;216;1800.wav;EssaisDT;1;1248827;933;1;1;1249077;819;250;left
5;1;36;400.wav;EssaisDT;1;228747;941;1;1;228813;820;65;left
5;1;137;400.wav;EssaisDT;1;863122;1088;1;1;863372;987;250;left
5;1;71;1800.wav;EssaisDT;1;380282;833;1;1;380532;1315;250;right
5;1;2;1800.wav;EssaisDT;1;41061;1020;1;1;41078;1366;15;right
6;1;275;1800.wav;EssaisDT;1;1612935;605;1;1;1613185;296;250;right
6;1;25;;EssaisDT;1;141183;988;1;1;142683;328;1500;right
6;1;250;1800.wav;EssaisDT;1;1492184;527;1;1;1493684;332;1500;right
6;1;251;1800.wav;EssaisDT;1;1497550;611;1;1;1499051;335;1500;left
6;1;83;1800.wav;EssaisDT;1;463120;713;1;1;464620;351;1500;right
6;1;36;400.wav;EssaisDT;1;229617;683;1;1;231117;356;1500;right
6;1;128;1800.wav;EssaisDT;1;719307;660;1;1;720807;360;1500;left
6;1;267;1800.wav;EssaisDT;1;1583435;627;1;1;1584935;363;1500;right
6;1;66;1800.wav;EssaisDT;1;394786;563;1;1;396286;370;1500;left
6;1;287;400.wav;EssaisDT;1;1661153;627;1;1;1661403;386;250;right
6;1;148;;EssaisDT;1;822325;977;1;1;823825;387;1500;right
6;1;192;;EssaisDT;1;1215613;1067;1;1;1215630;388;15;right
6;1;211;1800.wav;EssaisDT;1;1322082;589;1;1;1322148;388;65;right
6;1;136;1800.wav;EssaisDT;1;772474;613;1;1;772724;389;250;right
6;1;201;400.wav;EssaisDT;1;1280731;626;1;1;1280981;391;250;left
6;1;208;1800.wav;EssaisDT;1;1307965;567;1;1;1308215;391;250;left
6;1;199;1800.wav;EssaisDT;1;1272314;867;1;1;1273814;393;1500;right
6;1;76;1800.wav;EssaisDT;1;434503;764;1;1;436003;394;1500;left
6;1;272;1800.wav;EssaisDT;1;1600952;552;1;1;1601019;394;65;right
6;1;71;400.wav;EssaisDT;1;414286;1195;1;1;414303;398;15;right
6;1;274;400.wav;EssaisDT;1;1609419;635;1;1;1609435;399;15;right
6;1;222;400.wav;EssaisDT;1;1361432;703;1;1;1362932;404;1500;right
6;1;159;1800.wav;EssaisDT;1;862459;601;0;1;862526;408;65;left
6;1;105;1800.wav;EssaisDT;1;630789;1216;1;1;632289;413;1500;right
6;1;75;1800.wav;EssaisDT;1;429120;613;1;1;430620;414;1500;left
6;1;271;400.wav;EssaisDT;1;1597385;782;1;1;1597402;414;15;left
6;1;158;1800.wav;EssaisDT;1;858942;760;1;1;858959;422;15;right
6;1;150;400.wav;EssaisDT;1;830675;875;1;1;830692;424;15;right
6;1;283;400.wav;EssaisDT;1;1646752;669;1;1;1648253;424;1500;left
6;1;110;;EssaisDT;1;647873;1175;1;1;647889;427;15;left
6;1;216;;EssaisDT;1;1338398;704;1;1;1338648;427;250;right
6;1;103;;EssaisDT;1;623406;1011;0;1;623422;431;15;right
6;1;273;;EssaisDT;1;1604052;647;1;1;1604302;436;250;left
6;1;156;1800.wav;EssaisDT;1;850409;594;1;1;850475;437;65;left
6;1;263;400.wav;EssaisDT;1;1565618;1005;1;1;1567118;437;1500;left
6;1;174;400.wav;EssaisDT;1;1145179;832;1;1;1146679;440;1500;left
6;1;64;1800.wav;EssaisDT;1;341452;1115;1;1;342952;441;1500;left
6;1;124;400.wav;EssaisDT;1;701057;730;1;1;702557;443;1500;left
6;1;209;400.wav;EssaisDT;1;1313315;797;1;1;1314815;444;1500;left
6;1;90;;EssaisDT;1;494237;640;1;1;494304;445;65;right
6;1;131;400.wav;EssaisDT;1;757124;944;1;1;757141;445;15;right
6;1;223;400.wav;EssaisDT;1;1366865;890;1;1;1366882;446;15;left
6;1;234;400.wav;EssaisDT;1;1429833;807;1;1;1431333;446;1500;left
6;1;220;;EssaisDT;1;1355699;1062;1;1;1355765;448;65;left
6;1;138;400.wav;EssaisDT;1;779824;682;1;1;780074;452;250;right
6;1;255;400.wav;EssaisDT;1;1513867;912;1;1;1513884;452;15;left
6;1;30;1800.wav;EssaisDT;1;165983;757;1;1;167483;453;1500;left
6;1;32;400.wav;EssaisDT;1;173683;977;1;1;173700;454;15;left
6;1;207;1800.wav;EssaisDT;1;1304348;839;1;1;1304365;457;15;right
6;1;49;1800.wav;EssaisDT;1;278951;1016;1;1;279018;458;65;left
6;1;194;1800.wav;EssaisDT;1;1251564;593;1;1;1251814;459;250;right
6;1;16;;EssaisDT;1;105099;1039;1;1;106599;460;1500;right
6;1;115;400.wav;EssaisDT;1;666973;717;1;1;668473;461;1500;right
6;1;147;400.wav;EssaisDT;1;816858;736;1;1;818358;463;1500;left
6;1;113;1800.wav;EssaisDT;1;658640;917;1;1;660140;464;1500;left
6;1;153;1800.wav;EssaisDT;1;839475;647;1;1;839725;464;250;left
6;1;229;1800.wav;EssaisDT;1;1412516;708;1;1;1412533;465;15;left
6;1;179;400.wav;EssaisDT;1;1167263;710;1;1;1167513;466;250;left
6;1;186;;EssaisDT;1;1196130;603;1;1;1196147;467;15;right
6;1;235;;EssaisDT;1;1435250;575;1;1;1436750;467;1500;left
6;1;171;400.wav;EssaisDT;1;1132129;763;1;1;1133629;469;1500;right
6;1;244;400.wav;EssaisDT;1;1465833;654;1;1;1467333;470;1500;right
6;1;182;;EssaisDT;1;1178730;822;1;1;1180230;471;1500;right
6;1;126;;EssaisDT;1;710357;591;1;1;710607;476;250;left
6;1;204;1800.wav;EssaisDT;1;1292731;580;1;1;1292748;476;15;left
6;1;6;;EssaisDT;1;57765;1243;1;1;57782;478;15;left
6;1;101;400.wav;EssaisDT;1;614456;642;1;1;615956;478;1500;left
6;1;163;1800.wav;EssaisDT;1;1095229;641;1;1;1095479;478;250;right
6;1;190;;EssaisDT;1;1208147;495;1;1;1208213;480;65;right
6;1;140;1800.wav;EssaisDT;1;788425;556;1;1;788675;481;250;left
6;1;155;;EssaisDT;1;847142;775;1;1;847159;483;15;left
6;1;240;400.wav;EssaisDT;1;1454850;753;1;1;1454917;484;65;right
6;1;245;;EssaisDT;1;1471250;710;1;1;1471500;485;250;left
6;1;142;400.wav;EssaisDT;1;796025;782;1;1;797525;486;1500;right
6;1;165;1800.wav;EssaisDT;1;1106395;963;1;1;1107895;488;1500;left
6;1;116;;EssaisDT;1;672406;974;1;1;672423;491;15;left
6;1;3;400.wav;EssaisDT;1;43948;700;1;1;45448;492;1500;left
6;1;195;1800.wav;EssaisDT;1;1257064;763;1;1;1258564;492;1500;right
6;1;218;1800.wav;EssaisDT;1;1344732;665;1;1;1344982;493;250;left
6;1;157;400.wav;EssaisDT;1;853492;587;1;1;854992;494;1500;right
6;1;227;1800.wav;EssaisDT;1;1406083;1099;1;1;1406333;494;250;left
6;1;93;;EssaisDT;1;506238;527;1;1;506254;495;15;left
6;1;212;1800.wav;EssaisDT;1;1325298;541;1;1;1325315;496;15;left
6;1;121;;EssaisDT;1;687890;851;1;1;689390;497;1500;right
6;1;239;1800.wav;EssaisDT;1;1449350;567;1;1;1449600;503;250;right
6;1;269;400.wav;EssaisDT;1;1591618;1121;1;1;1591635;504;15;left
6;1;219;400.wav;EssaisDT;1;1350199;656;1;1;1351699;505;1500;right
6;1;50;400.wav;EssaisDT;1;282468;794;1;1;282718;506;250;right
6;1;56;400.wav;EssaisDT;1;312702;757;1;1;314202;508;1500;right
6;1;176;1800.wav;EssaisDT;1;1154063;702;1;1;1154313;510;250;left
6;1;14;400.wav;EssaisDT;1;93849;790;1;1;95349;511;1500;left
6;1;89;400.wav;EssaisDT;1;490787;926;1;1;490854;512;65;left
6;1;189;1800.wav;EssaisDT;1;1204847;738;1;1;1204863;514;15;left
6;1;92;400.wav;EssaisDT;1;502854;670;1;1;502871;515;15;right
6;1;173;1800.wav;EssaisDT;1;1139679;682;1;1;1139929;520;250;right
6;1;4;400.wav;EssaisDT;1;49398;582;1;1;49648;524;250;right
6;1;278;1800.wav;EssaisDT;1;1621535;581;1;1;1621602;531;65;left
6;1;91;400.wav;EssaisDT;1;497371;681;1;1;498871;533;1500;right
6;1;247;1800.wav;EssaisDT;1;1479767;836;0;1;1480017;535;250;left
6;1;111;400.wav;EssaisDT;1;651773;1162;1;1;652023;539;250;right
6;1;143;400.wav;EssaisDT;1;801475;1468;1;1;801541;540;65;right
6;1;281;;EssaisDT;1;1638136;744;1;1;1639636;541;1500;right
6;1;77;400.wav;EssaisDT;1;439853;860;1;1;440103;547;250;left
6;1;118;1800.wav;EssaisDT;1;678773;779;1;1;678840;547;65;left
6;1;242;400.wav;EssaisDT;1;1460517;750;1;1;1460583;552;65;right
6;1;132;400.wav;EssaisDT;1;760641;611;1;1;760658;558;15;right
6;1;236;400.wav;EssaisDT;1;1440683;995;1;1;1440933;564;250;right
6;1;277;;EssaisDT;1;1618169;753;1;1;1618235;564;65;right
6;1;170;400.wav;EssaisDT;1;1126579;708;1;1;1128079;566;1500;left
6;1;279;400.wav;EssaisDT;1;1627052;837;1;1;1628552;566;1500;left
6;1;135;1800.wav;EssaisDT;1;769024;704;1;1;769091;568;65;left
6;1;65;;EssaisDT;1;389253;1211;1;1;390753;571;1500;right
6;1;280;1800.wav;EssaisDT;1;1632602;652;1;1;1632852;578;250;left
6;1;35;400.wav;EssaisDT;1;224084;598;1;1;224334;581;250;right
6;1;261;400.wav;EssaisDT;1;1559451;701;1;1;1559468;582;15;right
6;1;184;400.wav;EssaisDT;1;1187263;852;1;1;1187513;583;250;right
6;1;100;400.wav;EssaisDT;1;611006;891;1;1;611256;588;250;right
6;1;214;400.wav;EssaisDT;1;1332832;773;1;1;1332898;588;65;left
6;1;22;400.wav;EssaisDT;1;129049;601;1;1;129116;599;65;right
6;1;40;400.wav;EssaisDT;1;246317;654;1;1;246334;603;15;left
6;1;52;400.wav;EssaisDT;1;291385;926;1;1;291401;604;15;left
6;1;193;400.wav;EssaisDT;1;1246014;956;1;1;1247514;609;1500;left
6;1;264;1800.wav;EssaisDT;1;1571018;884;1;1;1571035;614;15;left
6;1;69;400.wav;EssaisDT;1;405853;544;1;1;406103;616;250;left
6;1;167;1800.wav;EssaisDT;1;1114762;899;0;1;1114829;624;65;right
6;1;259;;EssaisDT;1;1553551;938;1;1;1553801;627;250;right
6;1;9;1800.wav;EssaisDT;1;69582;807;1;1;71082;634;1500;right
6;1;286;400.wav;EssaisDT;1;1657703;826;1;1;1657769;634;65;left
6;1;102;1800.wav;EssaisDT;1;619906;792;1;1;619972;674;65;right
6;1;257;;EssaisDT;1;1544201;968;1;1;1544218;682;15;right
6;1;146;400.wav;EssaisDT;1;811242;868;1;1;811492;686;250;right
6;1;123;400.wav;EssaisDT;1;695424;757;1;1;695490;692;65;right
6;1;203;;EssaisDT;1;1289431;754;1;1;1289448;701;15;right
6;1;29;400.wav;EssaisDT;1;160350;933;1;1;160600;703;250;left
6;1;1;1800.wav;EssaisDT;1;32165;1218;1;1;32731;706;250;left
6;1;86;1800.wav;EssaisDT;1;480054;917;1;1;480304;710;250;right
6;1;41;1800.wav;EssaisDT;1;249484;655;1;1;249734;712;250;left
6;1;104;400.wav;EssaisDT;1;626956;1193;0;1;626972;714;15;right
6;1;15;1800.wav;EssaisDT;1;99449;915;1;1;99699;720;250;right
6;1;33;;EssaisDT;1;215350;1013;1;1;216850;733;1500;left
6;1;84;400.wav;EssaisDT;1;468470;692;1;1;468487;735;15;right
6;1;224;1800.wav;EssaisDT;1;1370299;890;1;1;1370366;736;65;left
6;1;51;1800.wav;EssaisDT;1;285701;759;1;1;285768;737;65;right
6;1;231;1800.wav;EssaisDT;1;1418466;692;1;1;1418483;738;15;right
6;1;125;1800.wav;EssaisDT;1;706773;848;1;1;706790;746;15;left
6;1;160;400.wav;EssaisDT;1;865776;851;1;1;865842;768;65;right
6;1;177;1800.wav;EssaisDT;1;1159613;926;1;1;1159629;782;15;left
6;1;197;400.wav;EssaisDT;1;1264597;823;1;1;1264664;782;65;left
6;1;96;400.wav;EssaisDT;1;519738;878;1;1;519754;795;15;left
6;1;232;400.wav;EssaisDT;1;1424150;970;1;1;1424216;795;65;right
6;1;164;;EssaisDT;1;1100662;835;1;1;1100679;804;15;left
6;1;206;;EssaisDT;1;1298598;725;1;1;1298665;804;65;right
6;1;54;1800.wav;EssaisDT;1;300835;837;1;1;301085;805;250;right
6;1;37;1800.wav;EssaisDT;1;234917;914;1;1;234984;806;65;left
6;1;44;;EssaisDT;1;261651;932;1;1;261668;811;15;right
6;1;62;400.wav;EssaisDT;1;333569;872;1;1;333635;812;65;right
6;1;178;1800.wav;EssaisDT;1;1163129;955;1;1;1163196;817;65;right
6;1;27;1800.wav;EssaisDT;1;148616;674;1;1;148683;818;65;right
6;1;42;1800.wav;EssaisDT;1;255184;1137;1;1;255434;822;250;right
6;1;72;400.wav;EssaisDT;1;417953;849;1;1;418020;823;65;left
6;1;130;;EssaisDT;1;753707;894;1;1;753724;829;15;left
6;1;169;400.wav;EssaisDT;1;1120779;834;1;1;1120846;843;65;left
6;1;258;;EssaisDT;1;1547751;784;1;1;1547818;845;65;left
6;1;2;400.wav;EssaisDT;1;38131;882;1;1;38198;869;65;right
6;1;265;400.wav;EssaisDT;1;1574735;754;1;1;1574752;874;15;right
6;1;256;1800.wav;EssaisDT;1;1517534;980;0;1;1517601;876;65;left
6;1;225;1800.wav;EssaisDT;1;1397866;769;1;1;1397883;882;15;right
6;1;254;1800.wav;EssaisDT;1;1508001;900;1;1;1508251;882;250;right
6;1;248;400.wav;EssaisDT;1;1483184;932;1;1;1483250;885;65;right
6;1;180;1800.wav;EssaisDT;1;1172746;1090;1;1;1172813;888;65;left
6;1;80;;EssaisDT;1;448087;1164;1;1;448337;890;250;left
6;1;38;1800.wav;EssaisDT;1;238334;877;1;1;238401;900;65;left
6;1;108;1800.wav;EssaisDT;1;640539;1574;1;1;640606;918;65;right
6;1;85;400.wav;EssaisDT;1;474154;893;1;1;474404;930;250;right
6;1;23;1800.wav;EssaisDT;1;134599;1039;1;1;134666;932;65;left
6;1;119;400.wav;EssaisDT;1;682156;1048;1;1;682223;934;65;left
6;1;20;;EssaisDT;1;122216;1057;1;1;122283;936;65;left
6;1;95;;EssaisDT;1;513771;1041;1;1;513838;959;65;left
6;1;19;1800.wav;EssaisDT;1;116299;1129;1;1;116549;966;250;left
6;1;81;400.wav;EssaisDT;1;453937;991;1;1;454004;974;65;right
6;1;161;400.wav;EssaisDT;1;1089128;1368;1;1;1089378;1006;250;left
6;1;8;1800.wav;EssaisDT;1;63648;962;1;1;63665;1008;15;right
6;1;45;400.wav;EssaisDT;1;265101;822;1;1;265118;1021;15;right
6;1;99;400.wav;EssaisDT;1;604989;854;1;1;605239;1026;250;left
6;1;129;400.wav;EssaisDT;1;747741;941;1;1;747807;1032;65;left
6;1;53;;EssaisDT;1;294818;960;0;1;294835;1048;15;left
6;1;28;1800.wav;EssaisDT;1;154366;1143;1;1;154433;1055;65;right
6;1;97;400.wav;EssaisDT;1;596155;1054;1;1;596405;1084;250;left
6;1;58;1800.wav;EssaisDT;1;320335;968;1;1;320352;1105;15;right
6;1;10;1800.wav;EssaisDT;1;75165;1157;1;1;75182;1116;15;left
6;1;55;1800.wav;EssaisDT;1;306602;1361;1;1;306852;1133;250;left
6;1;13;1800.wav;EssaisDT;1;87782;1065;1;1;87799;1134;15;right
